time,seconds_elapsed,z,y,x
1760471333570624500,0.04262451171875,0.10938041217327117,-0.03577800034582615,-0.02041889767644461
1760471333580587500,0.05258740234375,0.18965572589337826,0.005502104547619819,0.06729890036960132
1760471333590549500,0.062549560546875,0.11103753173053264,0.033355157113075254,0.014623130244761704
1760471333600511500,0.072511474609375,0.01585749434530735,0.07603694549798964,0.017436753760231658
1760471333610473700,0.0824736328125,-0.029025603476166725,0.08111644071936606,0.04586688012785744
1760471333620435500,0.092435546875,-0.11487433341443538,0.03367313702106475,0.00004324776997091248
1760471333630398500,0.1023984375,-0.14379706103801726,-0.08346212706267833,-0.12994279627390204
1760471333640360700,0.112360595703125,-0.0708890612155199,-0.0712421124368906,-0.059359156878897916
1760471333650322400,0.122322509765625,-0.049504912403225895,0.0021229835033416745,-0.0344325519700651
1760471333660284400,0.132284423828125,-0.02844575776159763,-0.014317863687872886,-0.05345737178947311
1760471333670246700,0.14224658203125,0.006140986973047256,-0.044317865154147144,0.01568508664566907
1760471333680209700,0.152209716796875,0.08876666321158408,-0.04271510613262653,0.005407168831251329
1760471333690171400,0.16217138671875,0.15611585986316204,-0.03099719581007957,0.06445489998217671
1760471333700133600,0.172133544921875,0.1681944201916456,-0.06659399437010288,0.08363861614074558
1760471333710095600,0.182095703125,0.17959844225943086,-0.06402326709926127,0.04762018093543593
1760471333720057600,0.1920576171875,0.14013386235535144,-0.017766542837023735,-0.011219030022853984
1760471333730020600,0.2020205078125,0.08091887232065201,0.041892683833837506,0.031147358570224604
1760471333739982600,0.211982666015625,-0.11605214502215384,0.004313187023997306,0.02846976425827015
1760471333749944600,0.221944580078125,-0.17974866438508033,-0.0542757800668478,-0.009369550248247104
1760471333759906600,0.231906494140625,-0.18146072899997234,-0.04387479756176471,-0.01675011406978592
1760471333769868500,0.24186865234375,-0.14317863687872887,-0.04600713341534138,-0.05088817432201467
1760471333779831300,0.251831298828125,-0.06200900466740131,-0.05920505316257477,-0.035950098659854844
1760471333789793500,0.26179345703125,-0.016207038435339927,-0.03174363026320934,-0.020764733705739488
1760471333799755500,0.271755615234375,0.0017547347128391265,0.03095627927780151,-0.0034879128977074285
1760471333809717500,0.281717529296875,0.10235796619057655,0.0201338564902544,0.00848078014840139
1760471333819679500,0.291679443359375,0.2357195579320192,0.0007657236754894256,-0.0335147178892279
1760471333829642500,0.301642578125,0.3237117296397686,-0.027401217144727704,0.03532366700733546
1760471333839604700,0.311604736328125,0.2850631422936916,-0.06446867277920246,0.09709426437555811
1760471333849566500,0.32156640625,0.15974866340756416,-0.10323182641565799,0.07211772622764111
1760471333859528400,0.331528564453125,0.22283728000521658,-0.06473170762956142,-0.0024949597625352907
1760471333869490700,0.34149072265625,0.26113866134881975,-0.010190554624795914,0.19411672389023005
1760471333879452400,0.351452392578125,0.16165362024605273,-0.062300681090354915,0.2046072478422895
1760471333889415400,0.36141552734375,0.07416647545099259,-0.08691665143072605,-0.04278599311148282
1760471333899377700,0.371377685546875,-0.001222235271334648,-0.02896072154641151,-0.12148690168829634
1760471333909339400,0.38133935546875,-0.11567688196897506,-0.04177928658723831,-0.15409187975488603
1760471333919301600,0.391301513671875,-0.12336509838402271,-0.039942134287953374,-0.1651646605743095
1760471333929263600,0.401263671875,-0.11168109033107756,0.017329904985427854,-0.03173763434726279
1760471333939226600,0.4112265625,-0.07211246553063393,0.022900983116030692,0.005751572096929885
1760471333949188400,0.421188232421875,0.0171884506881237,0.02066284880042076,0.021541266469610854
1760471333959150600,0.431150634765625,0.0885129807114601,0.016832476857304574,-0.012958421036088838
1760471333969112600,0.441112548828125,0.15731763686835765,-0.013074293367564677,-0.009222723372792825
1760471333979074600,0.451074462890625,0.2759451853364706,-0.06829495306909084,0.028781695734674574
1760471333989037600,0.46103759765625,0.3029804917782545,-0.09724456869959831,0.053767675281083206
1760471333998999600,0.47099951171875,0.31484745518267154,-0.043908699831366534,0.02892503602838842
1760471334008961500,0.48096142578125,0.28747604865431786,0.03937280996739864,-0.04127775310615543
1760471334018923500,0.490923583984375,0.19587620784342288,0.04962620069533586,-0.011038984722743042
1760471334028885500,0.500885498046875,0.0021919570863246918,-0.018700608816742896,0.03658567031676648
1760471334038848500,0.5108486328125,-0.11601590466499329,-0.068930620624125,-0.005943552146718139
1760471334048810500,0.520810546875,-0.1969084735006094,-0.08672872764319181,-0.03319497984899208
1760471334058772500,0.5307724609375,-0.23485914171040057,-0.08150865490734577,-0.041193225761014036
1760471334068734500,0.540734375,-0.14527648594081402,-0.06646510729342699,-0.05897418528245762
1760471334078696400,0.550696533203125,-0.08451075933277606,-0.08498392980247735,-0.04129051668960601
1760471334088659500,0.560659423828125,0.050970308780670166,-0.08689064020663499,-0.022773025337827855
1760471334098621700,0.57062158203125,0.16701543954014778,-0.06226356395035982,0.03670488766608759
1760471334108583400,0.58058349609375,0.2639940507799387,-0.0512453263297677,0.04478076539158355
1760471334118545400,0.59054541015625,0.34429975963830944,-0.04622545234113931,-0.00966540737268515
1760471334128507600,0.600507568359375,0.4056459164828062,0.002289279980957508,-0.03826970756370574
1760471334138470400,0.610470458984375,0.43298342074155804,0.04709259056448936,-0.051750430874270385
1760471334148432400,0.620432373046875,0.512481320348382,0.043755262835323806,-0.03247365243765525
1760471334158394600,0.63039453125,0.6525666673868894,-0.04447422475963831,-0.05099747078223154
1760471334168356400,0.6403564453125,0.7745826892495155,-0.04679419213980436,-0.0054532147714402525
1760471334178318800,0.65031884765625,0.6602414397984743,0.008258709779381751,-0.077393894798588
1760471334188280800,0.66028076171875,0.46122576488554473,-0.020728022991120813,-0.13646278176032936
1760471334198243800,0.670243896484375,0.3832242413163185,-0.012155424956977367,-0.0763724793289788
1760471334208205800,0.680205810546875,0.15024609104692935,0.022572774074971675,-0.038208825955633074
1760471334218167800,0.690167724609375,-0.18927227953374384,-0.01614712494164705,0.045615430684015155
1760471334228129800,0.7001298828125,-0.48118952550590033,-0.0835024590730667,0.2449099590709433
1760471334238091800,0.710091796875,-0.688845602992177,-0.183524091270566,0.3231426975801587
1760471334248054800,0.7200546875,-0.8830296199649572,-0.2586059280008077,0.2155629964196123
1760471334258016800,0.730016845703125,-1.0028864179670811,-0.29382512542009354,0.07214779257234186
1760471334267978800,0.739978759765625,-0.9638058689445257,-0.24005671035349369,0.003791062846034765
1760471334277940700,0.749940673828125,-0.8768985698640346,-0.17281506572961805,-0.0247872352540493
1760471334287902700,0.75990283203125,-0.8620593126505612,-0.13315204064399003,0.004877561174798757
1760471334297866000,0.769865966796875,-0.8336018644511699,-0.06360971786230803,0.05061976004363969
1760471334307827700,0.77982763671875,-0.8452963938981294,-0.05677285757958889,0.10564217549301683
1760471334317789700,0.789789794921875,-0.881703924319148,-0.05337824670523405,0.1594726046788506
1760471334327752000,0.799751953125,-0.9337123439759015,-0.0316582900673151,0.11883901752801611
1760471334337713700,0.809713623046875,-1.0378326436638832,0.047829672667384145,0.07490867212042213
1760471334347676700,0.8196767578125,-1.27786480409801,0.07575754403471946,0.023991956690512597
1760471334357639000,0.829638916015625,-1.5426958902239798,0.02808160062432289,0.11420945803122594
1760471334367600600,0.8396005859375,-1.8319886329114436,-0.09852321033328772,-0.00536276914216578
1760471334377563000,0.84956298828125,-2.0563094294726847,-0.1423255271807313,0.006087631084304303
1760471334387524900,0.85952490234375,-1.9641285739034413,-0.048803193874657154,0.32910211744122203
1760471334397486600,0.869486572265625,-1.5592261692643166,0.31097879705578085,0.6312721696194261
1760471334407449600,0.87944970703125,-1.0830763914912938,0.15542933890372515,0.4467493496350944
1760471334417411800,0.889411865234375,-0.7147071894794702,0.12032032386064528,0.004392234476422891
1760471334427373800,0.899373779296875,-0.2776771236956119,0.32214053480029103,0.039009465680876744
1760471334437335800,0.909335693359375,0.06852174756228924,0.4198655804932117,0.21171423030328004
1760471334447297800,0.9192978515625,0.28127894757986066,0.42382104012072086,0.14823455029511823
1760471334457260800,0.9292607421875,0.20955343554019926,0.35730800203233953,-0.00399728490866255
1760471334467222800,0.939222900390625,0.15356091468334196,0.35821605678796764,-0.1937998764934018
1760471334477184800,0.949184814453125,0.10363806912899017,0.38967794750034807,-0.23073729427373035
1760471334487146800,0.959146728515625,0.15610592299103737,0.4333201053500175,-0.16924181035272776
1760471334497108700,0.969108642578125,0.2403518939077854,0.428100909397006,-0.1355206055393908
1760471334507071700,0.97907177734375,0.38634091203212734,0.45886078931987284,-0.10435809049922973
1760471334517033700,0.98903369140625,0.5117834012120962,0.3469938210278749,-0.3275624867837876
1760471334526995700,0.99899560546875,0.4595294823616743,0.22404139509797094,-0.5429585108723491
1760471334536957700,1.008957763671875,0.4890647889256477,0.2797130134373903,-0.1559978412403725
1760471334546920000,1.018919921875,0.7976105136156082,0.2721855405420065,0.2102635748372413
1760471334556881700,1.028881591796875,1.0911007079929114,0.24324644630551337,0.23190803681984543
1760471334566844700,1.0388447265625,1.361784611800313,0.285524914586544,0.22552507605077698
1760471334576806700,1.048806640625,1.5332149451732635,0.07869009035527706,0.11630447581540793
1760471334586769000,1.058768798828125,1.449497382044792,0.06801087543070317,0.09012518341476097
1760471334596730600,1.068730712890625,1.1499053636610508,0.1377215405166149,0.09931702759210019
1760471334606692900,1.07869287109375,0.8092050898194313,0.11241466530263423,0.1272347063589841
1760471334616656000,1.08865576171875,0.5468190587580204,0.0961684639006853,0.05234108567722141
1760471334626617600,1.09861767578125,0.434762705373764,0.011149755045771597,-0.02589101351117715
1760471334636579800,1.108579833984375,0.21916589801609515,-0.04406184456646442,0.10018957264292985
1760471334646541800,1.118541748046875,-0.07674421698451042,-0.09622866965532302,0.24609445614777503
1760471334656503600,1.128503662109375,-0.17168226230740546,-0.11667115370333193,0.08263910197569056
1760471334666465800,1.1384658203125,-0.16680325809419155,-0.054229602837562556,-0.07299262763233855
1760471334676428800,1.1484287109375,-0.19976035580039023,0.00800561180114746,-0.17132435224782674
1760471334686390800,1.158390869140625,-0.3771329387038946,-0.02840308766365051,-0.2671741603870876
1760471334696352800,1.168352783203125,-0.23280746987760065,-0.03160919022858143,-0.19635544272772967
1760471334706314800,1.178314697265625,-0.042892216265201566,-0.06871580882966517,0.016425010301265863
1760471334716277000,1.188277099609375,0.19520166958272456,-0.23142332204282282,0.11552441308731212
1760471334726238700,1.19823876953125,0.4076882359653711,-0.39222704746127124,0.11921017066165804
1760471334736201700,1.20820166015625,0.4888695586144924,-0.44705344714820383,0.10239875485869124
1760471334746164000,1.2181640625,0.5737322001248598,-0.38231238716840743,-0.04796234087003395
1760471334756125700,1.228125732421875,0.45896951039135453,0.019796587359905242,-0.4279515640541911
1760471334766087700,1.238087646484375,0.29104221670329566,0.5661772547006607,-0.7529834363818169
1760471334776050000,1.2480498046875,0.4948597389400005,1.7359136925131082,-0.8512697692193091
1760471334786013000,1.258012939453125,0.6665911010861396,2.4365993709027767,-0.4213566958338022
1760471334795974700,1.267974609375,0.40685763036012645,-0.12364274628162383,-0.493863165650703
1760471334805937000,1.27793701171875,0.38893209756910796,-2.128488530498743,-0.8650332138948142
1760471334815898600,1.287898681640625,0.5024585235059261,-2.2362995013982054,-0.338058892487362
1760471334825860900,1.29786083984375,0.5230050524502993,-1.2405325600475072,0.5243921959597617
1760471334835822800,1.30782275390625,0.4060907376408577,0.17345570172071456,1.1871454724486916
1760471334845785900,1.317785888671875,0.2042892314016819,1.0435223797380924,1.4583914671182632
1760471334855747600,1.32774755859375,-0.2764484586834907,1.2022469607949255,1.3387922971390187
1760471334865709800,1.337709716796875,-0.23620237301290034,0.06219196001887321,-0.5803790907934308
1760471334875671800,1.347671875,-0.8992992022424936,-0.4336339936047792,-0.6276495221428573
1760471334885633800,1.3576337890625,-1.1281798540651797,-0.017391279783844946,-0.13497903687544166
1760471334895595800,1.367595703125,-0.9341361223459244,0.6968348481804132,-0.29087767379134893
1760471334905558800,1.377558837890625,-0.7585358098119497,1.2823527631670235,-0.6197026547916233
1760471334915520800,1.387520751953125,-0.4301274467885494,1.3486428061544895,-0.7084457909971476
1760471334925482800,1.397482666015625,0.16543080069720745,0.5811895303934812,-0.3791264506086707
1760471334935444700,1.40744482421875,0.608025514870882,-0.39796062267720694,0.08828165617361665
1760471334945406700,1.41740673828125,0.6376911698162555,-0.779576259753108,0.5517969567684456
1760471334955369700,1.42736962890625,0.4265080872476101,-0.49972354558408255,0.9315157107144594
1760471334965331700,1.437331787109375,0.1285463004142046,0.0714230219617486,1.8404703377917409
1760471334975294000,1.4472939453125,-0.268629893887043,0.1409638834387064,1.8490186781674622
1760471334985255700,1.457255615234375,-0.13409282862544059,-0.402402989038825,0.9988588429514318
1760471334995218000,1.467218017578125,0.32061610171198845,-1.1555845783412455,-0.10735080604180693
1760471335005180000,1.477179931640625,0.2895931869387626,-1.2810381734371186,-0.6709171475917101
1760471335015142700,1.487142578125,0.04647825805842876,-0.6132444185629486,-0.5787747243367135
1760471335025104600,1.497104736328125,-0.06125906308293342,-0.0071294134885072705,-0.14983049598336218
1760471335035067000,1.50706689453125,-1.0384826320052147,0.7783122311666607,0.3691622520856559
1760471335045028600,1.517028564453125,-0.40714638417363164,0.4744157935872674,-1.2873252908825874
1760471335054990800,1.526990966796875,-0.9931833545982837,1.1022826117426157,-2.3753788862645626
1760471335064952800,1.536952880859375,-1.6923182964146137,1.414051390132308,-1.0821040393278003
1760471335074915800,1.546915771484375,-2.5704811871260405,0.17503917151987552,-0.09597367198094725
1760471335084877800,1.5568779296875,-1.719289305448532,-0.6067962653368711,-0.10079225124381481
1760471335094839800,1.56683984375,0.10419278040230273,0.2862321860730648,-0.7326041537631303
1760471335104801800,1.5768017578125,-0.4891828623473644,-0.6039809156551956,-1.4578344177573919
1760471335114763800,1.586763671875,-1.1642395939618349,-2.155090998481214,-2.031740805405378
1760471335124725800,1.596725830078125,-1.649151939383149,-3.5518268044143912,-2.6097525825455783
1760471335134688800,1.606688720703125,-2.0291817685723306,-4.765343931764364,-3.7852930304616685
1760471335144650800,1.616650634765625,-2.5400685132056475,-5.440843146449327,-5.31183390469849
1760471335154612700,1.62661279296875,-3.325356136342883,-5.720263314419984,-6.830838538211584
1760471335164575000,1.636574951171875,-4.046089746505022,-6.080401863703131,-7.840024933105707
1760471335174537200,1.646537109375,-4.930707512444258,-6.54954673115015,-8.269237018615007
1760471335184499000,1.6564990234375,-5.586202634498477,-7.135145310157537,-8.365990588927268
1760471335194462000,1.6664619140625,-6.130326462823152,-7.200237667793035,-8.875634640023112
1760471335204424200,1.676424072265625,-6.998900271934271,-6.8275114396154875,-9.680868488124013
1760471335214386000,1.686385986328125,-7.735787144517898,-5.174364293116331,-10.149793575340508
1760471335224348200,1.69634814453125,-8.261580366382002,-3.796229435017705,-9.531237314105033
1760471335234310100,1.70631005859375,-7.7430276171654455,-2.6198984212458134,-8.511542384678124
1760471335244273200,1.716273193359375,-6.837719529896974,-1.5608949792593716,-7.548138082271814
1760471335254235100,1.726235107421875,-5.930667229309678,-0.05790741456747055,-6.598441402700543
1760471335264197000,1.736197021484375,-5.860742044690251,2.4458061751872298,-4.987045485737919
1760471335274158800,1.746158935546875,-6.5170566664338105,3.9971114883244034,-2.9297984831541775
1760471335284121000,1.75612109375,-6.86255177333653,5.451675506108999,-0.6995898459769785
1760471335294083000,1.7660830078125,-6.230115455308556,7.123208204126358,1.1270654630824923
1760471335304046000,1.776046142578125,-5.230380779370665,8.725067646458745,2.833576243239641
1760471335314008000,1.786008056640625,-4.212251784086227,10.50751746469736,3.7383401406288144
1760471335323970000,1.795969970703125,-2.8355577724456786,12.159217334997653,4.8894741693019865
1760471335333932300,1.805932373046875,-1.6872656892001627,12.851221109759807,6.990390802264213
1760471335343894000,1.81589404296875,-0.6141752696722745,13.305645962458849,8.30535521070063
1760471335353856000,1.82585595703125,0.5655658448040485,13.365607386946678,9.372198844793438
1760471335363818200,1.835818359375,1.6009014109551907,13.185207565176487,10.301987877845763
1760471335373781000,1.845781005859375,2.5422826821237803,14.003265823537111,11.871167285847664
1760471335383743000,1.855742919921875,2.2446400442421437,13.68097448208928,13.579997156602143
1760471335393705200,1.865705322265625,1.4819389314442872,13.178089257603883,12.89838033581972
1760471335403667000,1.8756669921875,1.5529893207013605,13.162324702239037,12.144944479495287
1760471335413629000,1.88562890625,2.530624977555871,13.28643038985729,11.901560086023807
1760471335423591200,1.895591064453125,3.7667017272382974,12.7060971840322,11.404862610262631
1760471335433554200,1.90555419921875,3.9117935042619703,12.891992680609226,10.136374121797084
1760471335443516000,1.915515869140625,3.5005233181566,12.263548647087811,9.348443290674686
1760471335453478100,1.92547802734375,2.7290233973532914,11.542786395353078,8.818578289327025
1760471335463440100,1.935440185546875,1.9956296275824308,11.612090817725658,8.701348332697153
1760471335473402000,1.945402099609375,1.5893033276200295,12.200285842967032,9.005470395725965
1760471335483364000,1.955364013671875,0.8038228122591972,12.930391092586516,9.043746058106422
1760471335493327000,1.9653271484375,-0.5269803858220576,13.24072311617136,8.531071261012555
1760471335503289000,1.9752890625,-1.501328107047081,13.194476913303136,6.887292831361293
1760471335513251000,1.9852509765625,-2.3288661414146423,13.087059325635433,5.125083837118744
1760471335523213000,1.995213134765625,-3.6914720064699647,12.433605938541888,3.056823273089528
1760471335533175000,2.005175048828125,-4.074345534652472,11.259369266700745,-0.011617957079410553
1760471335543137000,2.015136962890625,-4.867118545109033,8.900971910375356,-3.106411772122979
1760471335553100000,2.02510009765625,-6.172109841063619,5.948533140867948,-6.162853936940431
1760471335563062000,2.03506201171875,-7.438415140271187,2.1554611469678577,-8.54959709778428
1760471335573024000,2.04502392578125,-8.107932357937097,-0.31410306655615566,-11.372941869866848
1760471335582986200,2.054986328125,-8.230452237668633,-1.484742298427224,-13.320241474044321
1760471335592948000,2.064947998046875,-7.70588768081665,-1.5911773047983646,-13.197222997140884
1760471335602910000,2.074909912109375,-7.2950570551723235,-0.5537646766448393,-12.637307140922546
1760471335612873000,2.084873046875,-7.388318107193708,0.48209118705336,-13.060437860691547
1760471335622835200,2.094835205078125,-7.560092723959684,0.18309030296318232,-13.884602034711836
1760471335632797000,2.104796875,-6.867470525038242,-0.9536236437566578,-14.230769926309584
1760471335642759200,2.11475927734375,-5.831008000683784,-2.3673494551964103,-15.478793134373426
1760471335652721200,2.12472119140625,-5.095020707288384,-3.6443025512769815,-16.805870589929818
1760471335662683100,2.13468310546875,-5.080055777868628,-3.7213030811101198,-16.857828740704058
1760471335672646100,2.144646240234375,-5.06433038547039,-3.79676018089354,-16.91323206349611
1760471335682608000,2.154608154296875,-5.044775790172815,-3.866032162301242,-16.977630009126663
1760471335692569900,2.16456982421875,-5.017569803339243,-3.9176469064652917,-17.056220146238804
1760471335702532000,2.174531982421875,-4.982364634445309,-3.9394776300013064,-17.1459723133564
1760471335712494000,2.184494140625,-4.944714410486817,-3.919554785913229,-17.22966883369684
1760471335722456000,2.1944560546875,-4.912989484924077,-3.849385271143913,-17.28396390298605
1760471335732419000,2.204419189453125,-4.895014267772436,-3.723818278801441,-17.289205895292756
1760471335742381000,2.214381103515625,-3.943100496673584,-2.3451792705729604,-14.954426730442046
1760471335752343300,2.22434326171875,-3.5981478260844946,-1.567197878795862,-14.249507360005378
1760471335762305000,2.234304931640625,-3.538381047385931,-0.9496951452013105,-13.431450270688533
1760471335772267000,2.24426708984375,-4.054993768450617,-0.5780060415191576,-12.674988929063081
1760471335782229200,2.254229248046875,-4.5968309471428395,0.07980024355426431,-12.32222412341833
1760471335792191000,2.26419091796875,-5.1460617432177065,0.8279268144894391,-12.106173142552375
1760471335802154000,2.274154052734375,-5.683350172564387,1.5199517051048577,-12.030908934992551
1760471335812116200,2.2841162109375,-5.880716911226511,3.2117870403081175,-11.777187856423854
1760471335822078000,2.294077880859375,-5.901672020971775,5.443703796577453,-10.61923128825426
1760471335832040200,2.304040283203125,-5.910457384973764,7.133615031850337,-8.654403041648864
1760471335842002200,2.314002197265625,-6.0935039218604565,7.984304224702716,-7.371541159915924
1760471335851964000,2.3239638671875,-6.16475772473514,8.804306602868436,-7.193824293619394
1760471335861927000,2.333927001953125,-5.789061540836095,10.558783541554211,-7.136991814807057
1760471335871889200,2.34388916015625,-5.427112142738699,12.644393884313105,-6.304125278893113
1760471335881851000,2.353850830078125,-5.246400770801306,13.894817139256,-4.200613661001622
1760471335891813000,2.363813232421875,-4.663771562993526,14.258424825954437,-2.1555001638039943
1760471335901775000,2.373775146484375,-3.1122610826730726,14.546047005081176,-0.7536299175918102
1760471335911737000,2.383737060546875,-1.13463239120543,14.851066893732547,0.32872458936572074
1760471335921700000,2.3937001953125,-0.12919570423364637,15.160150378561019,1.2432424035280942
1760471335931662000,2.403662109375,-0.3071735595539212,15.43613355782032,2.2532979824721813
1760471335941624000,2.4136240234375,-0.9015022652447223,15.939930636453628,3.4210394470751284
1760471335951586000,2.4235859375,-1.2491086652129888,15.754880358529089,4.959949973541498
1760471335961548000,2.433548095703125,-1.1172785208225249,15.731130065107344,6.157289288550615
1760471335971510300,2.44351025390625,-1.173873683747649,16.01907490031719,7.494778248006105
1760471335981473000,2.45347314453125,-1.4414172437027095,15.460477725481987,9.220608937922119
1760471335991435000,2.46343505859375,-1.7308938185244798,15.183620101475714,10.406823047804831
1760471336001397200,2.473397216796875,-2.279199900969863,14.902747981131077,11.109461613827943
1760471336011359000,2.48335888671875,-2.888860615827143,14.204447736573218,11.755220354765653
1760471336021321000,2.493321044921875,-3.2443110072940584,13.55104111123085,12.02171557471156
1760471336031283200,2.503283203125,-3.225197141501307,13.297072195380926,11.533823336696624
1760471336041245000,2.513244873046875,-2.908053684335947,13.07322719963789,10.96379174465537
1760471336051208000,2.5232080078125,-2.4391864647865296,12.850631911695002,10.42616721522212
1760471336061170200,2.533170166015625,-1.8610925623208283,12.679260615032911,9.919246451610325
1760471336071132200,2.543132080078125,-1.3931181999579072,12.584604309260845,9.337837140986323
1760471336081094100,2.55309423828125,-1.2175514974325894,12.626570642852782,8.84891146827042
1760471336091056000,2.56305615234375,-1.250534898623824,12.66713880008459,8.455253511223196
1760471336101017900,2.573017822265625,-1.2569172931373118,12.582647329974174,8.143076152032613
1760471336110980900,2.58298095703125,-1.2200772165179252,12.491270192003249,7.725771946460008
1760471336120943000,2.592943115234375,-1.102856612238288,12.421094832015037,7.191722352904081
1760471336130905000,2.602905029296875,-1.2089420745193957,12.88303312908411,6.25963147265017
1760471336140867000,2.6128671875,-1.4908254177331923,12.900370048332213,5.548472331041097
1760471336150829000,2.6228291015625,-1.6028782639861106,12.31831016484499,4.234420361274481
1760471336160791000,2.632791015625,-1.6608803710997104,11.415315030694007,1.7240999206006526
1760471336170754000,2.642754150390625,-2.0729232951432466,9.99156233075857,-1.800068184776604
1760471336180715800,2.6527158203125,-2.8272476247400045,7.30940706756413,-5.343238512265682
1760471336190677800,2.662677734375,-3.4494612394392488,3.970463719895482,-8.725573257893323
1760471336200640000,2.672639892578125,-3.87169647167325,0.9622831894218921,-11.634799493139981
1760471336210601700,2.682601806640625,-4.319871031805873,-1.9613468342304228,-12.776051594746113
1760471336220564000,2.69256396484375,-4.659776940399408,-4.118495057502389,-12.592753713446855
1760471336230526000,2.70252587890625,-5.088482829952239,-4.827281624761223,-11.679030264532566
1760471336240489000,2.712489013671875,-5.472731738141179,-5.254769955217838,-10.696465334582328
1760471336250451000,2.722450927734375,-5.629309954819083,-5.013253109183907,-9.771403914573789
1760471336260413000,2.732412841796875,-5.8976855816841125,-4.899005090974271,-9.42870516039133
1760471336270375000,2.742375,-5.999905600708723,-5.326330047562718,-9.65923942463994
1760471336280337000,2.7523369140625,-5.787385716578364,-6.251078163838386,-10.094915153205394
1760471336290299000,2.762298828125,-5.453166621449589,-7.183138648954033,-10.681040970957278
1760471336300262000,2.772261962890625,-5.058616099476814,-7.837627224314212,-10.728214225542544
1760471336310224000,2.782223876953125,-4.401130680388212,-7.673482956296205,-10.015141943788528
1760471336320185900,2.792185791015625,-3.679938220542669,-6.856952638155222,-8.694268603569268
1760471336330148000,2.802148193359375,-3.092804687052965,-5.675424055740237,-7.164788753271102
1760471336340109800,2.81210986328125,-2.493105686500668,-4.351907215274871,-5.588832398480177
1760471336350071800,2.82207177734375,-1.8540519961595534,-3.175675570224225,-4.06745665192157
1760471336360034800,2.832034912109375,-1.1827303594201803,-2.2055375756487248,-2.858841325138509
1760471336369996800,2.841996826171875,-0.4876783030033111,-1.5025295917913317,-2.108961992251873
1760471336379958800,2.851958740234375,0.07274316464960574,-1.0856555943295358,-1.7205778839543462
1760471336389921000,2.861921142578125,0.48059915839731693,-0.8587062028303742,-1.6687880754843354
1760471336399882800,2.8718828125,0.832754892233014,-0.7482844649106264,-1.687147908039391
1760471336409845000,2.881844970703125,1.0883885264247655,-0.6488587527796625,-1.594855993311107
1760471336419807000,2.891806884765625,1.155498069101572,-0.58483782376796,-1.4436939564630389
1760471336429770000,2.90177001953125,1.117601176905632,-0.4963759887218475,-1.271160338023305
1760471336439731700,2.911731689453125,0.9939987626343965,-0.2664265386238694,-0.9539327097058296
1760471336449694000,2.92169384765625,0.7628133410006761,-0.027664251995086667,-0.438356638212502
1760471336459656000,2.931656005859375,0.5681459244251251,0.32044571358114476,0.04114741842448711
1760471336469618000,2.941617919921875,0.3711445119440555,0.6190408298820257,0.45202100642770526
1760471336479580000,2.951579833984375,0.1916097825706005,0.8576552324727177,0.695391663634777
1760471336489543000,2.96154296875,0.19048399341106415,1.037411495642364,0.8680985928148031
1760471336499505000,2.9715048828125,0.31645021420419217,1.1412369040369987,0.9770958508893847
1760471336509467000,2.981466796875,0.5518137983053922,1.0650482751086354,0.912224734789133
1760471336519428900,2.991428955078125,0.781817901200056,0.8012450707256793,0.4165682925134897
1760471336529390800,3.001390869140625,0.9475117367476225,0.3121525170102715,-0.3167050657480955
1760471336539352800,3.011352783203125,0.9940712433487177,-0.1665539595082402,-0.8468737262174486
1760471336549315000,3.021315185546875,0.7848702745079994,-0.41474867587089537,-1.0581380573287607
1760471336559278000,3.031278076171875,0.4670061018526554,-0.37465368910878893,-0.9561889642000198
1760471336569239800,3.04123974609375,0.20384265667796134,-0.2358732871890068,-0.6273220437541603
1760471336579202000,3.0512021484375,0.04267243603467941,-0.04749854101687669,-0.2899243185892701
1760471336589164000,3.0611640625,0.0019429507613182068,0.1518397899791598,-0.015869477044045923
1760471336599125800,3.071125732421875,0.04189794453084469,0.18839286635071037,0.02930851207077503
1760471336609088000,3.081087890625,0.08190028457343577,-0.024981881043314932,-0.17787205685824153
1760471336619051000,3.091051025390625,0.11620996593236922,-0.3758712482050061,-0.5683242036014795
1760471336629012700,3.1010126953125,0.06051672028303146,-0.6757710173636674,-0.9280825213953852
1760471336638975000,3.11097509765625,-0.0391261417299509,-0.9274933233305811,-1.3228279814183712
1760471336648937000,3.12093701171875,-0.1108516537696123,-1.1847519283756613,-1.7914508708178996
1760471336658899000,3.13089892578125,-0.2942518263995647,-1.4485700380668043,-2.09089500516355
1760471336668861000,3.14086083984375,-0.6888380042076111,-1.665344072510302,-2.162485784907639
1760471336678823000,3.150822998046875,-1.120674593001604,-1.697267150993645,-1.9604466705203054
1760471336688785700,3.16078564453125,-1.35569155562222,-1.3259537122234701,-1.5945748382821678
1760471336698748000,3.170747802734375,-1.3669967934906482,-0.7939341631904244,-1.0061357751518487
1760471336708710000,3.1807099609375,-1.148664423689246,-0.3208715377777815,-0.4261120736673474
1760471336718672000,3.190671875,-0.7988859403789043,0.037086452595889566,-0.1830909605503082
1760471336728633900,3.2006337890625,-0.5115589448064566,0.12269698986411094,-0.003732756787538528
1760471336738595800,3.210595947265625,-0.28301322402656076,0.09806143804043531,0.1361012458384037
1760471336748557800,3.220557861328125,-0.15120879859924316,0.14854367104321717,0.09271510857641696
1760471336758520800,3.230520751953125,-0.12693711165189742,0.11066928294003009,0.06283902575075626
1760471336768482800,3.24048291015625,-0.11786357835829257,0.09045213208049535,0.0994102223008871
1760471336778445000,3.250445068359375,-0.14444178868234156,0.18292641763836145,0.17927870878577232
1760471336788406800,3.26040673828125,-0.1760340277761221,0.17101678413599727,0.15411971760988236
1760471336798369000,3.270369140625,-0.2631763046562671,0.10610942767858504,0.13942629860788583
1760471336808331000,3.2803310546875,-0.38527942028045653,0.05694704510271549,0.228513572075963
1760471336818293800,3.290293701171875,-0.3891302504897117,0.21369301956295966,0.23177023578435182
1760471336828256000,3.300256103515625,-0.29553543646931646,0.4393424343794584,0.2073784295886755
1760471336838218000,3.310218017578125,-0.16944880416691302,0.5292810639798641,0.1606988037392497
1760471336848179700,3.3201796875,0.000713116705417633,0.4570397113725543,0.12525953382849692
1760471336858142000,3.330141845703125,0.03646890521943569,0.26846885810643434,0.050123044301569455
1760471336868104000,3.34010400390625,-0.03795300629734993,-0.031140988194942473,-0.11696341464817524
1760471336878066000,3.35006591796875,-0.0882955385684967,-0.20740590211749074,-0.29819588785022494
1760471336888029000,3.36002880859375,-0.16660627421736715,-0.28198972619771956,-0.373648311458528
1760471336897991000,3.369990966796875,-0.17885785302519797,-0.3201806329041719,-0.5506754419252277
1760471336907953000,3.379952880859375,-0.16128127980232237,-0.36527854252010583,-0.8123749520272016
1760471336917915000,3.389914794921875,-0.20718904449641704,-0.5473530195042491,-0.9690408469885587
1760471336927876900,3.399876953125,-0.38433366386294365,-0.8499012573450804,-1.1225757504478096
1760471336937838800,3.4098388671875,-0.7001280445069075,-1.0724635198011994,-1.2267238149255513
1760471336947800800,3.41980078125,-0.9291893135935068,-0.9336351870864629,-1.1239300876662135
1760471336957763800,3.429763916015625,-0.95163787676692,-0.5981055938810109,-0.8907923629209399
1760471336967726000,3.43972607421875,-0.8004676566123962,-0.3452399630978703,-0.6350155208662152
1760471336977687800,3.449687744140625,-0.5576718766838312,-0.2175426807284355,-0.4446215438261628
1760471336987649800,3.45964990234375,-0.3431307158589363,-0.2545651281774044,-0.5163938176169991
1760471336997612000,3.469612060546875,-0.23007833717465398,-0.5507584440335631,-0.8314391334593295
1760471337007573800,3.47957373046875,-0.214915839356184,-0.7693141011968254,-1.0624775478377937
1760471337017536000,3.489535888671875,-0.27035774059295653,-0.6806853851512074,-1.0773264496624468
1760471337027499000,3.4994990234375,-0.400239673525095,-0.5318716649949551,-1.0578168625503779
1760471337037460700,3.509460693359375,-0.5607675046116113,-0.4236950756534934,-1.08503249399513
1760471337047423000,3.519423095703125,-0.6998270157337189,-0.41630613444596526,-1.136467205417156
1760471337057385000,3.529385009765625,-0.8464414722800254,-0.5068097044527531,-1.36723586294353
1760471337067346700,3.5393466796875,-0.931113559654355,-0.6366819927737116,-1.555056774625182
1760471337077309000,3.549308837890625,-0.9153191936731337,-0.5781430023044347,-1.3848890085339545
1760471337087272000,3.55927197265625,-0.8231441833227873,-0.39804713191688057,-1.0330012779846787
1760471337097234000,3.56923388671875,-0.6263719034224748,-0.1452981132507324,-0.654910015642643
1760471337107196000,3.57919580078125,-0.527341620349884,0.10716098255813121,-0.4214256694167852
1760471337117158000,3.589157958984375,-0.5120177944898605,0.11645838773548603,-0.5446247635841369
1760471337127120100,3.5991201171875,-0.43508711502254005,0.08914426435232162,-0.4976891171470284
1760471337137081900,3.609081787109375,-0.1934516110450029,0.31671441809833045,-0.07464344531297683
1760471337147043800,3.6190439453125,0.10379939717054366,0.6039835460036993,0.5203305725440383
1760471337157007000,3.629007080078125,0.2127320655763149,1.0012100091874598,0.9931094125792383
1760471337166968800,3.63896875,0.13229308572709558,1.407682439622283,1.3634633586674927
1760471337176935000,3.648934814453125,0.04176058188676834,1.6972639361232518,1.7227759785205126
1760471337186897000,3.65889697265625,0.07124445052444935,1.8271242417454718,1.8907292834326623
1760471337196859000,3.66885888671875,0.1542348684221506,1.7293465890824793,1.873260554498434
1760471337206820900,3.67882080078125,0.1857365066230297,1.4673229615926742,1.6975085585340857
1760471337216782800,3.688782958984375,0.14747954894304274,1.2213444599747656,1.574342782114446
1760471337226745900,3.698745849609375,0.012728548669815062,1.1435089406222105,1.5565625030130148
1760471337236707800,3.708707763671875,-0.11841478250026702,1.2221651287078856,1.6491079541109501
1760471337246670000,3.718670166015625,-0.17280571337938308,1.3008932129859923,1.7970087972059845
1760471337256631800,3.7286318359375,-0.22308219467699528,1.2460498621642588,1.6339052704125643
1760471337266594000,3.738593994140625,-0.21199264538586138,1.1245382826924324,1.385688342218101
1760471337276556000,3.74855615234375,-0.05397533581554889,1.0833569619983434,1.3870483785249292
1760471337286517800,3.758517822265625,0.0465548304259777,1.1592425163269042,1.5016666913516818
1760471337296480800,3.768480712890625,0.07247136197090148,1.260106444567442,1.567215122191608
1760471337306443000,3.778443115234375,0.13537877678275106,1.3400491653323172,1.6019684556648135
1760471337316404700,3.78840478515625,0.2332107899814844,1.4246101935476063,1.74328655936867
1760471337326367000,3.798366943359375,0.3085784579157829,1.4162626364409923,1.7982944531023501
1760471337336329000,3.808328857421875,0.24679390965402126,1.3350024033367633,1.6140337181203066
1760471337346291000,3.818291015625,0.14013035522401332,1.1283020191401243,1.3908259973675012
1760471337356253000,3.8282529296875,0.06629822629392147,0.8272872744768858,1.1301099453449248
1760471337366216000,3.8382158203125,0.029382746350765227,0.5768026936113834,0.8658626504562794
1760471337376177700,3.848177734375,0.035626609176397324,0.47280338995456694,0.690637747105956
1760471337386140000,3.858139892578125,0.03229658797085285,0.4604232163310051,0.6833468594454228
1760471337396102000,3.868101806640625,0.025904256585240364,0.4817576807826757,0.7295502460852265
1760471337406063900,3.87806396484375,0.06451426548659801,0.42390228866338725,0.6230339911714196
1760471337416025900,3.88802587890625,0.16976035433411596,0.2974152588665485,0.4343642075754702
1760471337425987800,3.89798779296875,0.2555278357297182,0.21036592096686363,0.3221706376776099
1760471337435951000,3.907951171875,0.2800280707359314,0.1567401292413473,0.22738719839453697
1760471337445912800,3.917912841796875,0.21389467961490152,0.1468026725947857,0.24079715345725416
1760471337455874800,3.927874755859375,0.16167583207786082,0.16457622969448565,0.31644641481190916
1760471337465837000,3.937837158203125,0.13933949710726737,0.2377940261185169,0.3751791742876172
1760471337475798800,3.947798828125,0.21458616901040076,0.2656447405964136,0.3674395199462771
1760471337485761000,3.957760986328125,0.332918533924222,0.248635153606534,0.35136779832839965
1760471337495723000,3.967722900390625,0.4690618653386831,0.2463642860651016,0.38035482335984705
1760471337505685800,3.977685791015625,0.5391255816459656,0.3103700175076723,0.42452465834543107
1760471337515648000,3.98764794921875,0.5341816955029964,0.3469394604921341,0.4444384423442185
1760471337525610000,3.99760986328125,0.4915110130339861,0.37554128559827804,0.49289852186962957
1760471337535571700,4.00757177734375,0.42768999050855633,0.47219724075496194,0.6025162499301135
1760471337545534000,4.017533935546875,0.3871569045901298,0.5430635056167841,0.6348707055680454
1760471337555496000,4.027495849609375,0.3696212478995323,0.611166150984168,0.6938521791078149
1760471337565458000,4.0374580078125,0.31463702730238435,0.660146747252345,0.7981357065334915
1760471337575421000,4.0474208984375,0.28570670089423655,0.7595294970244169,0.8827543101549148
1760471337585383000,4.0573828125,0.35866438507735726,0.8561024500727653,0.9834522341787815
1760471337595345000,4.067344970703125,0.45129415345788,0.822072170177102,1.0472942994922398
1760471337605307000,4.077306884765625,0.49281975754499435,0.702296036195755,1.0442100697413086
1760471337615268900,4.087268798828125,0.44024668974280357,0.6129746617108583,0.9018412879407405
1760471337625230800,4.09723095703125,0.34981004749238487,0.554371081572771,0.6978209366083145
1760471337635192800,4.10719287109375,0.26637831556797026,0.49087271513044833,0.6213260182097554
1760471337645155800,4.11715576171875,0.19106208555996418,0.43549744938910007,0.5299813212037087
1760471337655118000,4.1271181640625,0.09047755878269671,0.3881950154662132,0.40141953095942734
1760471337665079800,4.137079833984375,0.0030097032099962234,0.3154062581092119,0.3655120590150356
1760471337675041800,4.147041748046875,-0.016248539489507673,0.27558102819919583,0.30872137351781126
1760471337685004000,4.157004150390625,0.017853052076697348,0.23993045362532137,0.22221067253947258
1760471337694965800,4.1669658203125,0.042165071034431456,0.20125205566287038,0.22209376816153525
1760471337704928000,4.176927978515625,0.055708443218469614,0.18807284061610696,0.24207769478708505
1760471337714891000,4.18689111328125,0.009929857861995696,0.14121113619804382,0.12894699016958475
1760471337724852700,4.196852783203125,-0.0977285528242588,0.04981880065798759,0.048019642281532285
1760471337734815000,4.20681494140625,-0.1909866822361946,0.03574117546677589,0.02096913827061653
1760471337744777000,4.21677685546875,-0.2548211487650871,0.019760347002744674,0.06389145741313695
1760471337754738700,4.22673876953125,-0.24772739111185071,0.06518938826918602,0.08499941963255404
1760471337764701000,4.236700927734375,-0.22566870403885841,0.13944938722252845,0.07712707882225513
1760471337774663000,4.246662841796875,-0.17894494678676126,0.10439677854180335,0.01159457620382309
1760471337784626000,4.2566259765625,-0.1819458821684122,-0.013072832062840462,-0.0893237125724554
1760471337794588000,4.266587890625,-0.23750468778312206,-0.1752051757365465,-0.22282529730647802
1760471337804550000,4.2765498046875,-0.29795944874584673,-0.2971025396555662,-0.43164691144078965
1760471337814512000,4.28651220703125,-0.3236152835279703,-0.3295663008868694,-0.48190439577698707
1760471337824473900,4.296473876953125,-0.35176351964771746,-0.28682489126920696,-0.42733693928718564
1760471337834435800,4.306435791015625,-0.2660574130505323,-0.15390344451069832,-0.334660409155488
1760471337844397800,4.316397705078125,-0.11885901913642882,0.030832360637187955,-0.1570452496677637
1760471337854360800,4.32636083984375,0.04989128137230873,0.19885434687137601,-0.06270517023801803
1760471337864322800,4.33632275390625,0.1140063184082508,0.21201135008633135,-0.014283084635436535
1760471337874285000,4.34628515625,0.0780780959367752,0.08770780180841684,0.11292319934666156
1760471337884246800,4.356246826171875,0.04804126959145069,0.19955431183427572,0.10365063634961842
1760471337894209000,4.366208984375,0.015501520514488219,0.36559593790620565,0.04160597584694624
1760471337904171000,4.3761708984375,0.023598317730426786,0.42235564374327655,0.24777093799263236
1760471337914132700,4.3861328125,0.08528174370527267,0.52684536126554,0.320607626144588
1760471337924095700,4.396095703125,0.15163549957871436,0.5306958992138505,0.2751829687923193
1760471337934058000,4.40605810546875,0.21612112349271773,0.48169133754819626,0.22047405800521372
1760471337944019700,4.416019775390625,0.14658055427670477,0.34119361031651496,-0.006143032799661159
1760471337953982000,4.42598193359375,0.028483167162537574,0.09811989022940397,-0.37602848459333177
1760471337963944000,4.43594384765625,-0.05566869572997093,-0.059957040573656556,-0.608062924271822
1760471337973906000,4.445906005859375,-0.0766401720881462,0.032196926988661285,-0.6139516900494695
1760471337983868000,4.455867919921875,-0.11118483124673366,0.13491700448989868,-0.2974021071240306
1760471337993830000,4.465829833984375,-0.22694997602105138,0.27153058376461264,0.17440905692279338
1760471338003793000,4.47579296875,-0.2846411174893379,0.6224155670121312,0.6078934129238128
1760471338013755000,4.4857548828125,-0.2772124287933111,0.9384633378952741,0.7154869416803121
1760471338023716900,4.495716796875,-0.3526578381389379,0.9762433257132768,0.4346221278592944
1760471338033679000,4.50567919921875,-0.5450000266373157,0.6683201168358326,-0.06602087065726518
1760471338043640800,4.515640869140625,-0.7572136212974786,0.0745662884235382,-0.7167413256555796
1760471338053602800,4.525602783203125,-0.9248679432630539,-0.5059449043169617,-1.4314961536690591
1760471338063565000,4.53556494140625,-1.074659276279807,-1.054481872908771,-2.061134073150158
1760471338073527800,4.54552783203125,-1.1205611957550048,-1.5463073587194085,-2.479958327896893
1760471338083489800,4.55548974609375,-1.030316861206293,-1.8339283688023684,-2.700890066541731
1760471338093452000,4.5654521484375,-0.7687094133019446,-1.8812302182033658,-2.748914384998381
1760471338103413800,4.575413818359375,-0.5402712445497513,-1.810079583442211,-2.5994234962329266
1760471338113376000,4.5853759765625,-0.4730751926332712,-1.7487164754629134,-2.3983672554031013
1760471338123338000,4.595337890625,-0.5661866070508956,-1.6398150789782404,-2.26979640506953
1760471338133299700,4.6052998046875,-0.8014835556566715,-1.5713824710041284,-2.139592985098064
1760471338143263000,4.615262939453125,-1.06682083773911,-1.5773296889707444,-2.158668272446096
1760471338153225000,4.625224853515625,-1.2757464967697858,-1.5655319914102552,-2.2658929678902027
1760471338163186700,4.635186767578125,-1.3657418249934912,-1.5600284255579113,-2.3421783351913095
1760471338173149000,4.64514892578125,-1.2719167093485593,-1.5407283895432948,-2.2926564716532827
1760471338183107000,4.655107177734375,-1.0054869558542967,-1.4770955830663441,-2.1511209258064627
1760471338193069300,4.6650693359375,-0.6950532254606485,-1.3344523682385683,-1.9972139741644261
1760471338203031000,4.675031005859375,-0.40138708999454975,-1.1497802759766578,-1.8284978681862354
1760471338212993000,4.684992919921875,-0.1989993083000183,-0.9629673722937703,-1.6164049772962927
1760471338222956300,4.694956298828125,-0.11239069990515708,-0.8013169669181108,-1.3897712276175618
1760471338232918300,4.704918212890625,-0.16719254967272282,-0.7087088258475065,-1.1517638510093091
1760471338242880000,4.7148798828125,-0.3560042259573936,-0.5812172951832413,-0.9830600199908017
1760471338252842200,4.72484228515625,-0.5455208356410265,-0.38953620094209906,-0.8733651350408792
1760471338262804200,4.73480419921875,-0.695283527085185,-0.2847220737710595,-0.7263152096867561
1760471338272766200,4.74476611328125,-0.786562465378642,-0.24259528892040252,-0.6073340254753827
1760471338282728200,4.754728271484375,-0.7620137150555849,-0.19591157141774893,-0.603775163950026
1760471338292690000,4.76468994140625,-0.7327724230021238,-0.16035481260716913,-0.668513301320374
1760471338302653200,4.774653076171875,-0.7111024429857731,-0.2087976487368345,-0.6919771790161728
1760471338312615200,4.784615234375,-0.6412567533433436,-0.2969216301307082,-0.749859166881442
1760471338322577200,4.7945771484375,-0.584782001927495,-0.3172060010075569,-0.8526762750163673
1760471338332539100,4.8045390625,-0.6277537131696939,-0.388967461143434,-0.9676020463570952
1760471338342501000,4.814501220703125,-0.6992641211539506,-0.4940843706533313,-1.113052427560091
1760471338352463400,4.82446337890625,-0.8306395075142383,-0.6801759743243455,-1.4114020446673035
1760471338362425000,4.834425048828125,-1.0386585730940103,-0.923782193852961,-1.867154346577823
1760471338372388000,4.84438818359375,-1.2566408142834902,-1.2382596466794609,-2.452607964156568
1760471338382350000,4.85435009765625,-1.4151929613828658,-1.444260358174145,-3.061483958376944
1760471338392312000,4.86431201171875,-1.40515145983994,-1.556921691714227,-3.3452456626832485
1760471338402274000,4.874274169921875,-1.2344570395261047,-1.533215529695153,-3.3584570264339444
1760471338412236300,4.884236328125,-1.1841963403195142,-1.5681144091188908,-3.4662250349745154
1760471338422198000,4.894197998046875,-1.3339648769825696,-1.7726970705091951,-3.709484048500657
1760471338432160300,4.90416015625,-1.514343655964732,-1.9261925187408924,-3.867313434283435
1760471338442122200,4.914122314453125,-1.7516238873422145,-2.026380739676952,-4.300617757542431
1760471338452085200,4.924085205078125,-2.0402613809913395,-2.1063573627114294,-4.886284433349966
1760471338462047000,4.934046875,-2.146564285415411,-1.9739415273874996,-5.331795327231288
1760471338472009200,4.94400927734375,-1.9796072980642319,-1.742739739140868,-5.684672945600748
1760471338481971200,4.95397119140625,-1.5048492669105529,-1.151643147239089,-5.722483328557014
1760471338491933200,4.96393310546875,-0.8027268337160348,-0.22972762404084204,-4.996931504458189
1760471338501895200,4.973895263671875,-0.4651695340752601,0.6760469116955995,-3.5997087917909023
1760471338511857200,4.983857177734375,-0.11041326235234737,1.7133873879283665,-2.598660402905941
1760471338521819100,4.993819091796875,0.146988550555706,2.9715485436469313,-1.0767065641984344
1760471338531782100,5.0037822265625,-0.042700493085384365,3.8112323583602903,0.5384006283722818
1760471338541744000,5.013744140625,-0.5729039326071739,4.715401212465763,1.6050259435392915
1760471338551706000,5.0237060546875,-1.2166355516314507,5.50185963294804,2.646874690976739
1760471338561668000,5.033668212890625,-1.675325660559535,6.159311149767041,3.8843735824167727
1760471338571630300,5.04363037109375,-1.7634534413456915,6.626143648618459,4.898745855516195
1760471338581592000,5.053592041015625,-1.515369491881132,6.95145404562652,5.703460648179054
1760471338591554000,5.063553955078125,-1.2393307830423117,7.104145191738009,6.114549047976732
1760471338601516300,5.073516357421875,-0.8029039438486099,7.1002955305725335,5.771117887866497
1760471338611479000,5.08347900390625,-0.2504956867814064,6.875000336021184,5.4102504397869104
1760471338621441000,5.09344091796875,0.16281214263141155,6.43197775182426,5.471459233987331
1760471338631403300,5.1034033203125,0.3843821791797876,6.201566237172484,5.394080226230621
1760471338641365000,5.113364990234375,0.4337035517096519,6.17005583114326,5.388457125651836
1760471338651327200,5.1233271484375,0.18854045812785625,6.031153556409478,5.507533002409339
1760471338661289200,5.133289306640625,-0.1486883402109146,5.900798745268583,5.511587830758095
1760471338671251000,5.1432509765625,-0.43394203664064407,5.80417727690339,5.476220749300718
1760471338681213200,5.153213134765625,-0.6400654977321625,5.580516405555605,5.180902754974365
1760471338691176200,5.16317626953125,-0.6758662944316863,5.09008675801754,4.336026924575865
1760471338701138200,5.17313818359375,-0.5110878201633692,4.531246422076225,3.5130057831108568
1760471338711100200,5.18310009765625,-0.16759703882038593,4.018107514601946,3.1284155141383407
1760471338721062100,5.193062255859375,0.17145897494554518,3.5107407607883214,2.814707876640558
1760471338731024400,5.2030244140625,0.3988660470843315,3.0421599569648503,2.1095937142841517
1760471338740986000,5.212986083984375,0.4718810144126415,2.494081253534555,1.2049328388780354
1760471338750948000,5.222947998046875,0.4345493548840284,1.8966671490490437,0.2622461841993034
1760471338760911000,5.2329111328125,0.3705027069091797,1.357311850300431,-0.527496518650651
1760471338770873000,5.242873046875,0.1554641179561615,1.0371160198271274,-0.8144137643784284
1760471338780835000,5.2528349609375,0.13503157078027725,0.7343330964475869,-1.1950649403363465
1760471338790797300,5.26279736328125,0.25224516079723835,0.37214988959431644,-0.9737098617129027
1760471338800759000,5.272759033203125,0.17831307862401008,0.0802566090196371,-0.6007292203828692
1760471338810721300,5.28272119140625,0.02395195347368717,0.1634071859151125,-0.4559058850370347
1760471338820683300,5.292683349609375,-0.2591173846542835,0.2684913621991873,-0.2403660685636103
1760471338830645000,5.30264501953125,-0.5961959608674049,0.4165951805204153,0.04226487814709544
1760471338840608000,5.31260791015625,-0.7682330279618501,0.5686714096039533,0.11374562164545059
1760471338850570200,5.3225703125,-0.6811877817153931,0.5999100129544734,0.15403919971957802
1760471338860532000,5.332531982421875,-0.3852800048023462,0.6189864693462849,0.2148841290436685
1760471338870494200,5.342494140625,-0.07258943539261818,0.6466781938701868,0.1284329031676054
1760471338880456200,5.352456298828125,0.08054828544259071,0.5471282708376646,-0.07278495796471834
1760471338890418200,5.362418212890625,0.11485855132341384,0.4383241972476244,-0.28052871373444793
1760471338900380200,5.372380126953125,0.07835632835626602,0.47614510159790513,-0.3244806681856513
1760471338910342100,5.382342041015625,0.00032967034578323365,0.6664408789604902,-0.17702303881347178
1760471338920305200,5.39230517578125,-0.07016951476931571,0.9219634539932012,0.13690350213199853
1760471338930267100,5.40226708984375,-0.1736895104765892,1.055544825965166,0.4389084268763661
1760471338940229000,5.41222900390625,-0.2473363459676504,1.0909551620423794,0.5428668140009045
1760471338950191400,5.42219140625,-0.24590485185980795,1.200008241957426,0.4437774942174554
1760471338960153000,5.432153076171875,-0.2845329809397459,1.2347060458511114,0.2756508785650134
1760471338970115000,5.442114990234375,-0.3303156579494476,1.0468664294689893,-0.0881388867020607
1760471338980077300,5.452077392578125,-0.250893746188283,0.9319213689059018,-0.4114525569349527
1760471338990039000,5.4620390625,-0.18398644808530806,0.7563613883823156,-0.5014809106454253
1760471339000002000,5.472001953125,-0.11441022303402423,0.6641138973176479,-0.3491322943612933
1760471339009964300,5.48196435546875,-0.028131869506835935,0.8061088773697614,-0.06864595846384763
1760471339019926000,5.491926025390625,0.07763911999762058,1.0763263327091932,0.28082097467929124
1760471339029888300,5.50188818359375,0.2546685885518789,1.6056702327921986,0.7416615396395325
1760471339039850200,5.511850341796875,0.35221360150277614,2.1967390599042176,1.173148584343493
1760471339049812000,5.52181201171875,0.18852233794927595,2.499971480616927,1.3323705935284496
1760471339059774200,5.531774169921875,-0.5677589709341526,2.390836275376379,0.21592501639872788
1760471339069736200,5.541736083984375,-1.679089397007227,1.515276260639727,-2.1378087320297956
1760471339079699000,5.551698974609375,-2.321822068122029,0.2837994059681892,-4.133042346031964
1760471339089661200,5.5616611328125,-2.4133798233568666,-0.8950508971482515,-5.283779776602983
1760471339099623200,5.571623046875,-2.0689894628256558,-1.7110612830683587,-5.415853666621446
1760471339109585200,5.581585205078125,-1.4786182625889777,-2.2256413292616606,-4.9629520779669285
1760471339119547100,5.591547119140625,-0.8888573032051325,-2.4482307719856498,-4.520334859700501
1760471339129509000,5.601509033203125,-0.6532289306879043,-2.572369192829728,-4.674410153646767
1760471339139471000,5.61147119140625,-0.9978560225844383,-2.8734955811738967,-5.339789833116531
1760471339149434000,5.62143408203125,-1.5733534788161516,-3.3898955362707373,-6.047925242990255
1760471339159396000,5.63139599609375,-2.020405756920576,-3.8705581152930852,-6.857044992613792
1760471339169358300,5.6413583984375,-2.2670593813210727,-4.262737816481292,-7.409496504300832
1760471339179320300,5.6513203125,-2.381131166180968,-4.826275954850018,-7.7154527970194815
1760471339189282300,5.6612822265625,-2.4609493837833405,-5.262262941321731,-7.897965665420889
1760471339199244300,5.671244384765625,-2.5373282745867964,-5.486804102635383,-8.14558375093937
1760471339209206300,5.681206298828125,-2.7832407252311704,-5.532098119345307,-8.487555944412946
1760471339219168300,5.691168212890625,-3.2904420593500134,-5.4848997303187845,-8.83326557084918
1760471339229131300,5.70113134765625,-3.999303445410728,-5.588322110870481,-9.410704808798432
1760471339239093200,5.71109326171875,-4.901228319981694,-5.927838727885485,-10.22491282147169
1760471339249055500,5.721055419921875,-5.768377064725756,-6.232720084848999,-11.218321801519393
1760471339259017200,5.731017333984375,-6.3960939530164,-6.1620736002177,-12.055129184013605
1760471339268979200,5.740979248046875,-6.67011956846714,-5.716940891999006,-12.526568299877642
1760471339278941400,5.75094140625,-6.786005709272622,-4.979148010486364,-12.700439012140034
1760471339288903200,5.760903076171875,-6.678095954173803,-4.103152234680951,-12.632697601300476
1760471339298865400,5.770865478515625,-6.284852423146367,-3.0106352301493287,-12.320294032138586
1760471339308828400,5.780828369140625,-5.672353562253713,-1.6734037525862455,-11.737409972786903
1760471339318790100,5.7907900390625,-4.816761984312534,-0.100316815751791,-10.93682073562145
1760471339328752400,5.80075244140625,-3.91740783701241,1.65037154430598,-10.005822326779365
1760471339338714400,5.81071435546875,-3.1890105603545904,3.3703409409731626,-9.234117823314666
1760471339348676000,5.820676025390625,-2.505212303879857,4.921757897791266,-8.263080249550939
1760471339358638300,5.830638427734375,-1.9032810142308472,6.414154510363936,-6.889784063655138
1760471339368600300,5.840600341796875,-1.577522873455286,7.807318010768294,-5.488256055009365
1760471339378562300,5.850562255859375,-1.1485633014023304,9.16215908704102,-4.559830127003789
1760471339388525300,5.860525390625,-0.8417395781993865,10.124812278819084,-3.661498893010616
1760471339398487300,5.8704873046875,-0.9584779519200325,11.060077697455883,-2.617723707555234
1760471339408449300,5.88044921875,-1.373138364985585,11.938520574152468,-1.3307884389035403
1760471339418411300,5.890411376953125,-1.949134418389201,12.781162654149531,-0.08702361893653869
1760471339428373200,5.900373291015625,-2.4017963530689475,13.522415905249119,1.5811245512090621
1760471339438335200,5.910335205078125,-2.524628367489576,13.991464326584339,3.3438264435350895
1760471339448297200,5.920297119140625,-2.3254390895754096,14.427227733433245,4.800358838783204
1760471339458259500,5.930259521484375,-1.9216963763654231,14.693229616904258,6.272869139885902
1760471339468222500,5.940222412109375,-1.4498101012557745,14.776208344364166,7.558550170692801
1760471339478184200,5.95018408203125,-1.160097087329626,14.680848274236917,8.64267928610742
1760471339488146400,5.960146484375,-0.9885346520096063,14.42619429873228,9.505182250872254
1760471339498108400,5.9701083984375,-0.9359972400426864,14.23831376581788,9.942317530596256
1760471339508070100,5.980070068359375,-1.226245091497898,14.094808965724706,10.217585255062579
1760471339518032400,5.990032470703125,-1.8958669385820626,13.838303224873542,10.571621980339287
1760471339527994400,5.999994384765625,-2.7147084562748667,13.59695881279707,10.648580132335423
1760471339537956400,6.009956298828125,-3.3689842656672,13.287295482254027,10.481625483071804
1760471339547919400,6.01991943359375,-3.566346912676096,12.994176459276675,10.194175153380632
1760471339557881300,6.02988134765625,-3.276114258790016,12.86580142377615,9.63769687039554
1760471339567843000,6.039843017578125,-2.8531518813252448,12.816781080019473,8.737995517092942
1760471339577805300,6.049805419921875,-2.4762030670166015,12.646186028426884,7.831610155981779
1760471339587767300,6.059767333984375,-2.19347099801898,12.471527380657195,7.018262559530139
1760471339597729300,6.069729248046875,-1.9135750292301177,12.214866156983375,5.994876374369859
1760471339607691300,6.079691162109375,-1.6230173811733721,11.859562188249825,4.666460948207974
1760471339617654300,6.089654296875,-1.377127726882696,11.511461867284774,3.6667259800091383
1760471339627616300,6.0996162109375,-1.167935525870323,11.36730474076271,3.030629678168893
1760471339637578200,6.109578125,-1.1376900252103805,11.467768856030702,2.4008615564368663
1760471339647540200,6.119540283203125,-1.3898404934614896,11.436783350658416,1.3510548357322811
1760471339657502200,6.129502197265625,-1.6155723258644341,11.139163509130476,-0.2486149876013398
1760471339667464200,6.139464111328125,-1.9573802686870097,10.912682319664954,-1.538363413977623
1760471339677426400,6.149426513671875,-2.496351536554098,10.094259319645166,-2.4892300141111017
1760471339687388200,6.15938818359375,-3.1630443444490433,8.995755641919374,-4.043045264242589
1760471339697350100,6.16935009765625,-3.616099662360549,8.08713273101449,-6.016064123827219
1760471339707313400,6.1793134765625,-3.7734371729731557,7.035097958996891,-7.801049013501405
1760471339717275400,6.189275390625,-3.5506606832444665,5.886714690336585,-8.945721737205982
1760471339727237000,6.199237060546875,-3.042790656083822,4.519918972375988,-9.867257905697821
1760471339737199400,6.209199462890625,-2.327851411414146,3.1721465193152425,-10.156397503650188
1760471339747161300,6.219161376953125,-1.6180606355488298,2.0125994670838114,-9.769484929209947
1760471339757123300,6.229123291015625,-1.4034329654842614,1.3554440106019376,-9.589275661575794
1760471339767085300,6.239085205078125,-1.8659569534868001,0.9204910433530807,-10.126336711907387
1760471339777047000,6.249047119140625,-2.9293653524339196,-0.05964651331976056,-11.155581559967993
1760471339787010300,6.25901025390625,-4.584287107390165,-1.6490081469982862,-12.527807486283779
1760471339796972300,6.26897216796875,-6.5858700904190535,-3.520051317708194,-13.999748170804976
1760471339806934300,6.278934326171875,-8.523342712587118,-4.913332014751434,-15.5906273694396
1760471339816896300,6.288896240234375,-9.890090499752759,-5.8592883387506,-16.822068860536813
1760471339826858200,6.298858154296875,-9.860650470256806,-6.079799221634865,-16.899795074295998
1760471339836820500,6.308820556640625,-9.827485867279767,-6.244746622729301,-16.99643057118654
1760471339846782200,6.3187822265625,-9.79391209897995,-6.361826941755414,-17.097993587607146
1760471339856744200,6.328744140625,-9.764674314057826,-6.431410765591264,-17.187043159413335
1760471339866707200,6.338707275390625,-9.74034768205285,-6.445122480079531,-17.256389667361972
1760471339876669200,6.348669189453125,-9.720435943880677,-6.392948056206107,-17.30376750460863
1760471339886631200,6.358631103515625,-9.707535545775293,-6.267813025540113,-17.32303100800514
1760471339896593400,6.368593505859375,-9.215240688887238,-6.42330344698131,-15.454398697829246
1760471339906555100,6.37855517578125,-8.382542495277523,-4.715182893539965,-14.067695333349704
1760471339916517400,6.388517333984375,-7.7530328783512115,-3.2370693656027316,-13.06166418761611
1760471339926479400,6.398479248046875,-7.436155378645658,-2.1554595395326612,-12.517920883041619
1760471339936441000,6.408441162109375,-6.965680723899602,-1.2214400293037295,-11.884260576176644
1760471339946404000,6.418404052734375,-6.166190972408652,-0.13468378025591374,-11.179451095855235
1760471339956366300,6.428366455078125,-5.227434204524755,1.1286980327203868,-10.513435164308547
1760471339966328300,6.438328369140625,-4.5887014167010785,2.335461009635031,-9.985385103428364
1760471339976290300,6.448290283203125,-4.061611725285649,3.5455452399268745,-9.524258122742175
1760471339986252300,6.458252197265625,-3.397708840370178,5.025862999910116,-8.894808711570501
1760471339996214300,6.46821435546875,-2.8135476006895304,6.38240386583805,-8.062580473560095
1760471340006176300,6.47817626953125,-2.651302444291115,7.631594364115595,-7.168155599355697
1760471340016138200,6.48813818359375,-2.7926404217392204,8.655444075134396,-6.3435167935609815
1760471340026101200,6.498101318359375,-2.740277197295427,9.613814475026727,-5.3254924276947975
1760471340036063200,6.508063232421875,-2.5002070429384706,10.501641850662232,-4.096527848105132
1760471340046025200,6.518025146484375,-2.2915555246740578,11.341113483929634,-2.9831697155967354
1760471340055987500,6.527987548828125,-2.32689338003695,11.996862873005867,-2.0601722423806788
1760471340065949200,6.53794921875,-2.458617141443491,12.50111470966935,-0.9971858682379126
1760471340075911200,6.5479111328125,-2.5342460906624793,13.006231638729572,0.5196199400566518
1760471340085873400,6.557873291015625,-2.5023282728761433,13.31082716448903,2.331217526846379
1760471340095835100,6.567835205078125,-2.1414450427055356,13.65139650542736,3.8814012886077163
1760471340105797400,6.57779736328125,-1.6187562165975569,13.64932379080653,5.080243993917107
1760471340115760400,6.587760498046875,-1.4716943085446952,13.472501243001222,5.884169097507
1760471340125722000,6.59772216796875,-1.6604194755896924,13.472128318035601,6.411762646791338
1760471340135684400,6.607684326171875,-1.99641405595839,13.379023333358765,7.012673361220956
1760471340145646300,6.617646240234375,-2.233410209697485,12.93674601457119,7.966255942314863
1760471340155608000,6.627608154296875,-2.4232009601473807,12.608193274641037,8.82690363460183
1760471340165570300,6.6375703125,-2.6339099954634904,12.341256156146526,9.475020921364425
1760471340175532300,6.6475322265625,-2.7693203364282843,11.992560791897773,10.007290645766258
1760471340185493500,6.657493408203125,-2.846439524205029,11.922711595124005,10.02197968085408
1760471340195456500,6.66745654296875,-2.951953908599913,11.869696628773212,9.747278942620754
1760471340205418500,6.67741845703125,-2.9870222993716595,11.754302655398845,9.71047043018341
1760471340215380500,6.68738037109375,-3.035972792762518,11.827882270872593,9.65427858736217
1760471340225342500,6.697342529296875,-3.04917305059731,11.877494150781631,9.496184705424309
1760471340235304700,6.7073046875,-2.8874814364284274,11.727412310385704,9.180105078098178
1760471340245266400,6.717266357421875,-2.6605475347593424,11.545015761840343,8.748803911355138
1760471340255228400,6.727228515625,-2.6052076325923204,11.663421191990375,8.190500751030445
1760471340265190700,6.737190673828125,-2.654561738348007,11.881260809838771,7.633042809358239
1760471340275153700,6.747153564453125,-2.72339328251183,11.974912907004356,7.0045479224324225
1760471340285115400,6.757115478515625,-2.702160524868965,12.125640059566496,5.9985968561977145
1760471340295077600,6.76707763671875,-2.7436078030228614,12.33426995052099,4.818992227582633
1760471340305039600,6.77703955078125,-2.971398906043172,12.320477572011947,3.6647020729660986
1760471340315001600,6.787001708984375,-3.284351925781369,12.194110953724383,2.4346865230187773
1760471340324963600,6.796963623046875,-3.570505785921216,12.043362758374213,0.7898688134476542
1760471340334925300,6.80692529296875,-3.7570667606696486,11.912102522826194,-1.1675491569012402
1760471340344887600,6.816887451171875,-4.0697704818218945,11.650684460014103,-3.096931411594152
1760471340354849500,6.826849609375,-4.2749481864959,10.405725315696001,-4.332563632379472
1760471340364812500,6.8368125,-4.109090684819221,9.3039179202497,-5.196032519567012
1760471340374774500,6.8467744140625,-3.788044959518313,8.40989227449596,-6.092969668853282
1760471340384736500,6.856736572265625,-3.8400738374412056,7.359282566845416,-6.994858887588977
1760471340394698500,6.866698486328125,-4.464517403149604,6.486224890318512,-8.071077668270469
1760471340404660500,6.876660400390625,-5.257188706797361,5.559709179848432,-9.082063221541047
1760471340414622500,6.88662255859375,-6.061873688843846,4.601211354184151,-9.502333875703812
1760471340424584700,6.896584716796875,-6.500251662105321,2.8562033778503535,-9.347239175581931
1760471340434546400,6.90654638671875,-5.950116610667109,1.8137009888097644,-9.081510263833403
1760471340444509400,6.916509521484375,-5.02926842443943,1.5775895089507102,-8.407270693820715
1760471340454471700,6.9264716796875,-4.292466892051697,1.584867390999198,-7.58744133413434
1760471340464433400,6.936433349609375,-3.98296313598454,1.7198082147561013,-7.028332118123769
1760471340474395400,6.9463955078125,-3.908341317981481,1.7986875440731644,-6.320517026245594
1760471340484357600,6.956357666015625,-3.887135448345542,2.185781612560153,-6.0616696907043455
1760471340494319400,6.9663193359375,-3.790308812797069,2.6202579022079706,-6.086888303112984
1760471340504281600,6.976281494140625,-3.6641812639623876,2.5269723002672193,-6.8085016187191005
1760471340514243600,6.98624365234375,-3.7866152189761397,1.658156206832826,-8.936651126521825
1760471340524205600,6.99620556640625,-4.009698582696914,-0.07349849479524419,-11.525991912418604
1760471340534168600,7.00616845703125,-4.114889726486802,-1.9526269366800784,-14.091381329363584
1760471340544130600,7.016130615234375,-4.153522531741857,-3.5903123101532457,-15.9256612880826
1760471340554092300,7.02609228515625,-4.277750384435057,-4.621066393733025,-16.947162390148637
1760471340564054500,7.036054443359375,-4.26431748688817,-4.848737377505004,-17.034454889154432
1760471340574016500,7.0460166015625,-4.26562272426784,-5.043157833582162,-17.092040816682577
1760471340583978500,7.055978515625,-4.28121426115334,-5.191117859518528,-17.10966181356907
1760471340593940500,7.0659404296875,-4.3088586394041775,-5.2841608848750585,-17.08334430000782
1760471340603902500,7.07590234375,-4.347304982176423,-5.319703322899342,-17.012088743567467
1760471340613864400,7.085864501953125,-4.394672882550955,-5.2983086526930325,-16.901258717107773
1760471340623827500,7.095827392578125,-4.452193343627453,-5.2234185391426085,-16.75379553477764
1760471340633789400,7.10578955078125,-4.52517557772994,-5.101725173363089,-16.568220356196164
1760471340643751700,7.115751708984375,-4.617928680229187,-4.939510412102938,-16.34722081301212
1760471340653713400,7.12571337890625,-4.734311664640903,-4.73428974507004,-16.093576891332862
1760471340663675600,7.135675537109375,-4.879409286883473,-4.48055580701977,-15.809828923290967
1760471340673637600,7.1456376953125,-5.053222131478786,-4.17403282032907,-15.509229189169407
1760471340683599400,7.155599365234375,-3.551594164702296,-1.252058747190237,-12.226283038532733
1760471340693561600,7.1655615234375,-4.003184670758247,-0.22771884150169788,-10.756044481754302
1760471340703523600,7.175523681640625,-4.310682347699999,0.6781741329826414,-9.344014952838421
1760471340713486300,7.185486328125,-4.75227869848609,1.4809069580480456,-8.301606087300181
1760471340723448600,7.195448486328125,-5.039043968522549,2.7034154933661223,-7.763065612065792
1760471340733410600,7.20541064453125,-5.019018833103775,4.249581105527281,-6.852185862144827
1760471340743372500,7.21537255859375,-4.899792734220624,6.06856237282753,-5.3677077676117415
1760471340753334500,7.22533447265625,-4.906856681257486,8.137091232404112,-3.547957854026556
1760471340763296500,7.235296630859375,-5.221354592350125,9.689368605443835,-1.2730986126095056
1760471340773258500,7.245258544921875,-5.622981336319446,11.29613569356203,0.5884457851320505
1760471340783220500,7.255220458984375,-5.29560991512835,12.417495346218347,2.6890134585261345
1760471340793182700,7.2651826171875,-4.790262099921703,12.223973008024691,4.904175479349494
1760471340803145500,7.2751455078125,-4.852818217077851,11.68547637193203,5.745481926828623
1760471340813107500,7.285107421875,-5.467566318202018,11.164683734834194,5.881350532954931
1760471340823069700,7.295069580078125,-6.066888302135467,10.748789396059513,6.319359088382124
1760471340833031400,7.305031494140625,-5.660175633203983,10.941911921280623,7.1704217907220125
1760471340842993400,7.314993408203125,-4.275129680542648,11.576395234966277,8.161007530042529
1760471340852955600,7.32495556640625,-2.6962150604680177,12.145436646926402,9.122175451698899
1760471340862917400,7.33491748046875,-1.484593245345354,12.736210582745075,10.295345371091365
1760471340872879600,7.344879638671875,-1.1061614990025759,13.146346211862562,11.559629978126287
1760471340882841600,7.354841552734375,-1.3139607843518257,13.210794426375626,12.324478039824962
1760471340892804600,7.3648046875,-2.155972749751806,13.660469454199076,12.549909427976608
1760471340902766600,7.3747666015625,-3.2552737153351305,13.899078303831814,12.721501673913002
1760471340912728600,7.384728515625,-3.9027965433359144,13.78134975003004,12.944641736257076
1760471340922690600,7.394690673828125,-3.9190865838795896,13.552493063604832,12.889338951230048
1760471340932652500,7.404652587890625,-3.6784810074716803,13.17238783109188,12.10493395614624
1760471340942614500,7.414614501953125,-3.7610260196894405,12.241426831650733,10.966375331407784
1760471340952576500,7.424576416015625,-3.7142572542518377,10.812226387703419,10.007365464568137
1760471340962538500,7.43453857421875,-3.2434853701248763,9.752840083879232,8.05909906118512
1760471340972500500,7.44450048828125,-3.6365330863192677,9.973972898054122,5.484803868728876
1760471340982463500,7.45446337890625,-4.755485970094799,10.370468124353884,5.095888722294569
1760471340992425500,7.464425537109375,-5.099160875833034,11.269923393940925,5.764844214424491
1760471341002387500,7.474387451171875,-4.575704864744842,12.63381403810978,6.568918371096253
1760471341012349700,7.484349609375,-3.391253672881424,14.1716958060503,6.6880228894263505
1760471341022311400,7.4943115234375,-2.3608576089590785,15.554473521518707,5.281904630380868
1760471341032273400,7.5042734375,-1.8524574204444884,16.267055973929168,2.8727976620376108
1760471341042235600,7.514235595703125,-2.3980168345302344,16.432766760611532,0.09476444232165813
1760471341052197400,7.524197265625,-3.6566993837743995,15.198324334132671,-3.3762907892882823
1760471341062159600,7.53415966796875,-4.8144835179865355,13.04316056267619,-6.867122734513878
1760471341072122600,7.54412255859375,-5.068557063254714,9.870927534121275,-9.05591054315269
1760471341082084400,7.55408447265625,-4.778689735549688,5.58807953428626,-10.244875413048266
1760471341092046600,7.564046630859375,-4.002665030798315,3.754987908568978,-12.270709040236472
1760471341102008600,7.574008544921875,-3.7119390404373407,3.0774516350984573,-12.70585519196987
1760471341111970300,7.58397021484375,-1.935218121239543,3.8977313689008355,-9.448017763626575
1760471341121932500,7.5939326171875,-1.013244730374217,5.35001136740148,-8.42800134716034
1760471341131894500,7.60389453125,-1.0832137541353701,6.493037492942809,-9.104313631793856
1760471341141856500,7.6138564453125,-1.866384238988161,5.352946836331486,-9.888013108956812
1760471341151818500,7.623818603515625,-3.025024697768688,4.730943649512529,-11.69711303371191
1760471341161781500,7.633781494140625,-4.102769080582261,4.2613738346517085,-13.547262761735915
1760471341171743700,7.64374365234375,-5.054727275344729,3.0434272004216907,-14.066799845814703
1760471341181706200,7.653706298828125,-5.808321537101269,1.6818845806837082,-14.945649549746513
1760471341191668200,7.663668212890625,-6.468368331110477,0.11182663628160953,-16.707101588141917
1760471341201630200,7.673630126953125,-6.515857812038064,-0.07196341244876385,-17.004665315568445
1760471341211592200,7.68359228515625,-6.542111612713336,-0.20621640007197856,-17.267471033346652
1760471341221554200,7.69355419921875,-6.561310234180093,-0.306222834700346,-17.48566604050398
1760471341231516200,7.70351611328125,-6.582288724800944,-0.38117432304918764,-17.64831159439683
1760471341241478100,7.71347802734375,-6.606470979899168,-0.43183658879399295,-17.740357425409556
1760471341251440400,7.7234404296875,-6.636850920593738,-0.4578898984611034,-17.743432010549306
1760471341261403100,7.733403076171875,-6.671119100898504,-0.45720951498150825,-17.65593492888212
1760471341271365000,7.743365234375,-6.703080173304676,-0.42409985706210135,-17.485275579881666
1760471341281327400,7.753327392578125,-6.729021839290857,-0.35269174040853973,-17.24016450874805
1760471341291289000,7.7632890625,-6.755242322218418,-0.2418330723762512,-16.925912681370974
1760471341301251000,7.7732509765625,-6.79514938519299,-0.09341302771270274,-16.546041257613897
1760471341311213300,7.78321337890625,-6.8578633232593535,0.0930447789222002,-16.109728400188683
1760471341321175000,7.793175048828125,-6.9431497431397435,0.32001813581883903,-15.635796882987021
1760471341331137300,7.80313720703125,-3.177831579214334,2.0181646999955176,-13.452456818360089
1760471341341099300,7.813099365234375,-3.6347815664768217,2.985983311712742,-12.146250301396845
1760471341351062300,7.823062255859375,-4.188391600549221,3.845491186314821,-11.038287890452146
1760471341361024300,7.833024169921875,-4.383599115350842,4.817563948345184,-9.815817641317844
1760471341370986200,7.842986328125,-4.412658621096611,5.384343260592222,-8.18940652605295
1760471341380948200,7.8529482421875,-4.311239397060871,6.430631597912311,-7.24821463997662
1760471341390910200,7.86291015625,-4.077619441756606,7.6239406344920395,-6.371579104962945
1760471341400872200,7.8728720703125,-3.986000896245241,8.721508492672443,-4.772524783179164
1760471341410834200,7.882834228515625,-4.331951930221915,9.633134677046536,-2.3702760101675984
1760471341420796200,7.892796142578125,-5.495027156579495,10.268347474050522,-0.8965583791017532
1760471341430758100,7.902758056640625,-6.678525577762723,10.581251393949985,-0.3884107040435075
1760471341440721200,7.91272119140625,-7.1327627989351745,10.545781436640024,-0.2712257555991411
1760471341450683100,7.92268310546875,-6.820483148413897,10.591038628470898,0.004259411010146141
1760471341460645000,7.93264501953125,-5.962682662251591,11.405080052405594,0.904311477446556
1760471341470607400,7.942607421875,-5.246198526227474,11.697156288331746,2.057276813200116
1760471341480569000,7.952569091796875,-4.535229354232549,12.200726572471856,2.487267481866479
1760471341490531300,7.96253125,-4.183958878798783,12.62293725478649,3.418030328387022
1760471341500493300,7.972493408203125,-4.135284864261746,12.677840226840972,4.955839031091332
1760471341510455000,7.982455078125,-4.050267324450612,13.137911560994386,6.339860024619102
1760471341520417300,7.992417236328125,-3.908973770666122,13.589879083669185,7.836728229647874
1760471341530379300,8.002379150390626,-3.663768591508269,13.697187950265407,9.453907406187056
1760471341540342000,8.012342041015625,-3.5867876431584356,13.996035287761687,11.580443633574246
1760471341550304300,8.02230419921875,-4.215555501806736,13.484059578847884,13.26774439408779
1760471341560266200,8.032266357421875,-4.640892207187414,13.152051145505904,13.594732953441142
1760471341570228200,8.042228271484374,-4.144838290026784,13.064659277778864,14.832157610601186
1760471341580190200,8.052190185546875,-4.363242556020618,12.960339656126498,16.29500196547508
1760471341590152200,8.062152099609374,-5.484736064189672,12.95837800066471,16.06237861999273
1760471341600114200,8.0721142578125,-6.0134144861012695,12.592941929495334,15.027760846722126
1760471341610076200,8.082076171875,-5.542672120329738,11.940391044199465,14.425677581381796
1760471341620038100,8.0920380859375,-5.059486452570558,11.449319007104634,13.54550218180418
1760471341630000000,8.102000244140624,-4.922580320090055,11.448903996562956,12.104478029072284
1760471341639963100,8.111963134765626,-5.134111777704954,11.588929722368716,10.575448260629177
1760471341649925000,8.121925048828125,-5.246873064488172,11.69293604028821,9.142304632014035
1760471341659887000,8.13188720703125,-5.0549341960936784,11.666108823639155,7.443766438171267
1760471341669849000,8.14184912109375,-4.651356318056584,11.570082398557663,5.695954802593588
1760471341679811300,8.151811279296876,-4.215095483079552,11.649524768584966,4.333790836086869
1760471341689773000,8.16177294921875,-3.8380584059655662,12.012572483313082,3.240882201889157
1760471341699735000,8.171735107421876,-3.8421357384070753,12.718880677759646,1.7721745079398155
1760471341709697300,8.181697265625,-4.253923518645763,13.17421621556282,0.22462240985631943
1760471341719659000,8.191658935546876,-4.766407761603594,11.94066343140006,-1.5575217034339903
1760471341729621200,8.201621337890625,-4.691022558012604,10.341434922093152,-4.24988330334425
1760471341739584300,8.211584228515624,-4.447233090871572,8.951521363395452,-6.16764993904531
1760471341749546200,8.221546142578125,-4.096716940936446,7.952352504646778,-6.841969588556886
1760471341759508200,8.23150830078125,-3.7546810345768926,8.224486022740601,-7.54559015135467
1760471341769470200,8.24147021484375,-3.31654037720263,8.137925345140696,-8.436133800211548
1760471341779432200,8.25143212890625,-2.563915252739191,6.605511194956303,-8.821690868389606
1760471341789394200,8.261394287109376,-1.1968494856655596,5.955968259304761,-10.446170723330974
1760471341799356200,8.271356201171875,-0.17918518528342245,5.260677133435011,-11.559972507953644
1760471341809318400,8.281318359375,-0.14398995326161385,3.9932393230661747,-11.872425176954268
1760471341819280100,8.291280029296875,-1.3786901538938283,3.175046332409978,-12.890615547037124
1760471341829242000,8.3012421875,-2.989223901069164,2.4899235493332146,-14.378296237003802
1760471341839205400,8.311205322265625,-2.981194908392429,2.1472920151680706,-14.795301167368889
1760471341849167000,8.3211669921875,-2.9754338606476782,1.8607599693655967,-15.1951375207901
1760471341859129000,8.331129150390625,-2.9639474209934473,1.6321569654405117,-15.56998205629587
1760471341869091300,8.34109130859375,-2.939701453009248,1.463990602299571,-15.908565191853045
1760471341879053000,8.351052978515625,-2.903717116436362,1.3494745808035133,-16.202398500579594
1760471341889015300,8.361015380859374,-2.8573984328538176,1.2787164524912833,-16.4519647975564
1760471341898977300,8.370977294921875,-2.8039976820558308,1.2437263876527547,-16.65452150607705
1760471341908939000,8.38093896484375,-2.7504917173177,1.2345873879075049,-16.806602411335707
1760471341918901200,8.3909013671875,-2.7053327251642942,1.23836398383677,-16.91172867319584
1760471341928863200,8.40086328125,-2.674680981791019,1.247991059359908,-16.96649603617191
1760471341938826000,8.410825927734376,-2.6616835530519483,1.2656477120816707,-16.95262883886099
1760471341948788200,8.420788330078125,-2.672723417982459,1.295737145397067,-16.843137367528676
1760471341958750200,8.430750244140626,-2.7130980984687803,1.3430734815895558,-16.625920850014687
1760471341968712200,8.440712158203125,-2.7838614874780174,1.4151555519819259,-16.30720561348796
1760471341978674200,8.450674072265626,-2.8818717798531055,1.5214584564059972,-15.905936012393235
1760471341988636200,8.46063623046875,-2.99795958071053,1.6726391979545354,-15.449081886720656
1760471341998598100,8.47059814453125,-2.151911491662264,2.1706553550988437,-13.651886334770918
1760471342008560000,8.48056005859375,-2.760803852495551,2.979016979831457,-12.34460663561821
1760471342018522400,8.4905224609375,-3.222142430105805,3.064070175477862,-11.641641906380652
1760471342028484000,8.500484130859375,-3.543478078263998,3.1972850522249936,-11.54216680215001
1760471342038447000,8.510447021484374,-3.8856940173655747,4.2746193929329515,-11.210006393116712
1760471342048409300,8.520409423828125,-4.2866029684543605,6.174319333806634,-9.568985737740993
1760471342058371300,8.530371337890625,-4.204335604134202,7.699176785001158,-7.092858658570051
1760471342068333000,8.5403330078125,-4.003260074082017,8.357851706135273,-5.626584913769364
1760471342078295300,8.55029541015625,-3.765637897399068,8.485781335955858,-5.52144228529632
1760471342088257000,8.560257080078125,-3.3126427852421996,9.081375239276886,-5.846247070869803
1760471342098219300,8.57021923828125,-2.860712087446451,10.388806914120911,-4.846112581959367
1760471342108181200,8.58018115234375,-2.845997041134536,11.777929030179976,-2.97703486610353
1760471342118143000,8.59014306640625,-3.7835111154809593,13.268148883235455,-1.3257616967827082
1760471342128105200,8.600105224609376,-5.569661249542236,14.778711267095803,0.3418184642165899
1760471342138067200,8.610067138671875,-7.238994976210594,15.356895770454406,2.2790660454571245
1760471342148029200,8.620029296875,-8.105719942584633,15.082233610665797,3.711412386214733
1760471342157992200,8.6299921875,-8.119545638841391,14.845095418107508,4.769463057520985
1760471342167954200,8.6399541015625,-7.283746556606888,14.334793779885768,5.632255945143103
1760471342177916400,8.64991650390625,-5.986299100160599,14.006144009321927,6.407701388701796
1760471342187877600,8.659877685546874,-4.877663319998979,13.324433665037155,7.262732994672656
1760471342197839600,8.669839599609375,-4.019334426048398,12.677758393776417,7.83110337550342
1760471342207801600,8.679801513671874,-3.190724963057041,12.608462154710292,8.449986384475231
1760471342217763600,8.689763671875,-2.4953192708969114,12.745658794569968,9.568407061070204
1760471342227725800,8.699725830078124,-1.8660687432982026,12.635315090322493,11.068033040374516
1760471342237687600,8.7096875,-1.592407138854265,12.5699164432168,12.529095772528647
1760471342247649800,8.71964990234375,-2.001824390569329,12.524141364991664,13.318330087465046
1760471342257611800,8.72961181640625,-2.679048821611702,12.413159362840652,13.715718463212252
1760471342267574800,8.73957470703125,-3.2164293131560084,11.980924130117893,14.105718482273817
1760471342277536500,8.74953662109375,-3.5023367973193524,11.646127527362108,13.987308375948666
1760471342287498800,8.759498779296875,-3.6138474995195864,11.194613593673706,13.373555715602636
1760471342297460700,8.769460693359376,-3.5394247112199664,10.64623619955778,12.401677014839649
1760471342307422700,8.779422607421875,-3.499724861255288,10.311571698749065,11.179520069438219
1760471342317384700,8.789384765625,-3.683360596206784,10.224751493430137,9.904739787352085
1760471342327346700,8.7993466796875,-3.982565076577663,10.110982490909098,9.085174631559848
1760471342337308700,8.80930859375,-4.109006513667106,10.125914687103032,8.452457743024825
1760471342347270700,8.819270751953125,-4.229390842674673,10.616243212354183,7.333283033192157
1760471342357233000,8.82923291015625,-4.456026638180017,10.925630648565292,6.059063892120123
1760471342367194600,8.839194580078125,-4.704185406446457,10.926487557655573,4.617741633224487
1760471342377157600,8.84915771484375,-4.752476266884804,10.691939966112376,3.0493992605686184
1760471342387119900,8.859119873046875,-4.390991855950653,10.581679263973236,1.5667968967795372
1760471342397081600,8.86908154296875,-3.670428926180303,10.005375752055645,0.9466250170409679
1760471342407043600,8.879043701171875,-2.803965533351898,9.628254503789544,0.24886370166540145
1760471342417005800,8.889005859375,-2.0133155063986776,10.129906971609591,-0.9368108945131302
1760471342426967600,8.898967529296876,-1.7539818486452101,9.955155969381332,-1.5537357551544904
1760471342436929800,8.9089296875,-1.9737538958609102,9.796526080870628,-2.3668033656209704
1760471342446891800,8.918891845703126,-2.356792843738198,9.6608059433043,-3.52146732198596
1760471342456853500,8.928853515625,-2.5730524989187717,9.246825913718343,-4.6446799090325825
1760471342466815700,8.938815673828126,-2.2676175997257233,8.892473546621202,-5.467672701185942
1760471342476777700,8.94877783203125,-1.800890899336338,8.866751076343656,-5.84701688619852
1760471342486740500,8.958740478515624,-1.863633478975296,8.934968288001418,-6.075646778130531
1760471342496702700,8.96870263671875,-3.001089110907912,7.946357063624262,-6.874875248336791
1760471342506664700,8.978664794921874,-4.477819367793202,7.635306662636995,-9.103685270762442
1760471342516626700,8.988626708984375,-5.2185693455457685,6.119602239713072,-11.192326944041252
1760471342526588700,8.998588623046874,-5.104884514176845,4.5006835260301825,-12.912867126333714
1760471342536550700,9.008550537109375,-4.412147164443135,3.390032898914814,-13.488187472432852
1760471342546512600,9.0185126953125,-4.013894280821085,3.1894594731658694,-13.702654398977757
1760471342556474600,9.028474609375,-4.189574672853946,3.2102246132969854,-14.330739536058902
1760471342566436900,9.038436767578125,-4.077846236249805,2.2652058624088762,-15.553838730746508
1760471342576398600,9.048398681640625,-4.0255402949512,2.106017170971632,-15.93174031573534
1760471342586360600,9.058360595703125,-3.989296430659294,1.9825503657788037,-16.25366340839267
1760471342596322800,9.06832275390625,-3.976252240169048,1.8821756823599338,-16.508350117123126
1760471342606285800,9.078285888671875,-3.9803170053899284,1.7994564826190471,-16.70250724608898
1760471342616247600,9.08824755859375,-3.9955110673904417,1.7332155394703148,-16.839301734888554
1760471342626209800,9.098209716796875,-4.018082964682579,1.6825971128672361,-16.920459092140195
1760471342636171500,9.108171630859376,-4.048029774656891,1.6470722104996443,-16.941065826839207
1760471342646133800,9.1181337890625,-4.085442682728171,1.6285411130309104,-16.893539521032572
1760471342656095700,9.128095703125,-4.1259208235889675,1.6320616883724928,-16.779002456748486
1760471342666057500,9.138057373046875,-4.164571164500713,1.6625141097813845,-16.605224098944664
1760471342676019700,9.148019775390624,-4.198898966038227,1.7243337293565273,-16.378513776898384
1760471342685981700,9.157981689453125,-4.233025692045689,1.8225760769218204,-16.09303796215057
1760471342695943700,9.167943603515624,-4.276289079710841,1.961535050278902,-15.741515850043296
1760471342705905700,9.17790576171875,-4.336266870811581,2.1454811663538216,-15.32721608698368
1760471342715867600,9.18786767578125,-4.418950414717197,2.379829435932636,-14.858050761270523
1760471342725831000,9.197830810546876,-4.529418622127175,2.6708102778375147,-14.344202244222164
1760471342735792600,9.207792724609375,-4.662469248223305,3.025496406933665,-13.807157560503482
1760471342745754600,9.217754638671876,-2.937093900859356,4.883055534431338,-12.70361998026371
1760471342755716900,9.227716796875,-3.8432524674773214,5.991897066298127,-11.300865644693374
1760471342765678600,9.2376787109375,-4.736106146842241,7.224890463012456,-10.526315688669682
1760471342775640800,9.247640869140625,-5.119406960526108,8.00441879197061,-9.701357733923196
1760471342785602800,9.257602783203126,-5.331662640762329,9.180899443346261,-9.116940473654866
1760471342795564500,9.267564453125,-5.4740019042074675,10.349816965991257,-7.600076359301805
1760471342805526800,9.27752685546875,-5.708530791050196,11.844250052827595,-5.805276178056001
1760471342815488500,9.287488525390625,-5.8762207688510415,13.816285454332828,-3.4616233863979575
1760471342825450800,9.29745068359375,-5.290451509451866,15.277092165899276,-0.37722120150923727
1760471342835412700,9.307412841796875,-4.531018458539247,15.776289057260751,2.3091595704257486
1760471342845374500,9.31737451171875,-4.214149434401095,15.463124440598486,3.763360015594959
1760471342855337700,9.327337646484375,-4.117572974221408,14.718855056548117,4.174433802345395
1760471342865299700,9.3372998046875,-4.001141474492847,13.605315137732028,4.31659244852662
1760471342875261700,9.34726171875,-3.4036332619830962,12.818528800469636,4.7152696950405835
1760471342885223700,9.3572236328125,-2.6230446103170513,12.727580701565742,5.887752216690778
1760471342895185700,9.367185546875,-2.3722236371040344,13.365741826981305,7.573933033263683
1760471342905148000,9.37714794921875,-2.4399469277650114,13.83380942058563,9.447418628689647
1760471342915109600,9.387109619140626,-2.4196330385327336,13.839233783721923,10.753926174426079
1760471342925071600,9.397071533203125,-2.106343918707967,13.55010587620735,11.572843679964542
1760471342935033900,9.407033935546876,-1.7726219594463706,13.01015027347803,12.502932572746277
1760471342944995600,9.41699560546875,-1.623256742887199,12.436666495156288,13.338789522647858
1760471342954957800,9.426957763671876,-1.662453319504857,11.98943243074417,13.622765454226732
1760471342964919800,9.436919921875,-1.8374983362436292,11.600126823687553,13.376750712251662
1760471342974881500,9.446881591796876,-1.8510341096431016,11.225885514771937,13.129611350160836
1760471342984844800,9.4568447265625,-1.7310414103016256,10.833213061630726,13.197599429237842
1760471342994806800,9.466806884765624,-1.5830857682794333,10.795281098121404,13.027713987219332
1760471343004768500,9.4767685546875,-1.3853586718723176,10.887330436265469,12.849736424160003
1760471343014730800,9.486730712890624,-1.1741583459079266,10.805878479981422,12.33800153826475
1760471343024692700,9.496692626953125,-0.9444605324834585,10.606021093547344,11.271803216338157
1760471343034654700,9.50665478515625,-0.8515943249985575,10.488223566162585,10.131870965158939
1760471343044616700,9.51661669921875,-0.8844926782548427,10.476478183311224,9.254970057207345
1760471343054578700,9.52657861328125,-1.1081909590035677,10.674467437785863,8.407712592369318
1760471343064540700,9.536540771484376,-1.3027093224972486,10.758660801732539,7.5398296881318085
1760471343074502700,9.546502685546875,-1.4616244576901196,11.178422337329387,6.885656754592061
1760471343084465000,9.55646484375,-1.6171005583450198,12.092667179769277,5.797541784411669
1760471343094426600,9.566426513671875,-1.2394874349087477,12.747940768027306,4.004771647688746
1760471343104388600,9.576388671875,-1.1363058773756027,12.276257322013377,2.474088851341605
1760471343114351900,9.586351806640625,-1.089420792081952,11.477330465102195,0.9993757794976234
1760471343124313600,9.596313720703124,-0.7752043282791972,10.704615907812117,-0.5614069715589285
1760471343134275600,9.606275634765625,-0.6614069764465094,10.281845253527164,-1.706161528328061
1760471343144237800,9.61623779296875,-1.2312182037353514,9.831462954217194,-2.7647067051529883
1760471343154199600,9.626199462890625,-2.650270178633928,9.106734721460938,-3.9069092393517493
1760471343164161800,9.636161865234374,-4.102657436901331,8.860728747314214,-5.599869925323128
1760471343174123800,9.646123779296875,-5.178054379805922,7.5647876037776465,-6.535868918931484
1760471343184089600,9.656089599609375,-5.639446148908138,6.865353386753797,-7.932358933410048
1760471343194051600,9.666051513671874,-5.351580808675289,6.525661997693777,-9.262804404094815
1760471343204013600,9.676013671875,-5.090249255102872,5.720370281925797,-10.154636923718451
1760471343213975600,9.6859755859375,-5.4410506517201656,4.493575739851594,-11.256154396307467
1760471343223937500,9.6959375,-5.935713406783342,3.281642666822672,-13.240207567864656
1760471343233899500,9.7058994140625,-5.639558377110958,2.35496153665781,-15.107150609779357
1760471343243861800,9.71586181640625,-5.586805276566744,2.063720582512021,-15.49959860651493
1760471343253824500,9.725824462890625,-5.5458203552275895,1.8151035490840672,-15.87086586805582
1760471343263786500,9.735786376953126,-5.522639386126399,1.6031863070219754,-16.208034460639954
1760471343273748700,9.745748779296875,-5.516435855311155,1.422896959888935,-16.50595357737541
1760471343283710500,9.75571044921875,-5.52677838562727,1.2700760499179362,-16.75877799936533
1760471343293672400,9.76567236328125,-5.5508454899132245,1.1428542761057614,-16.961805832529066
1760471343303634700,9.775634765625,-5.582401488649845,1.0442296512246132,-17.108130366218088
1760471343313596400,9.785596435546875,-5.614497585612535,0.9792372468322514,-17.18938826123476
1760471343323558700,9.79555859375,-5.6389586576521396,0.9513210659027099,-17.205973485332727
1760471343333520600,9.805520751953125,-5.650834973406791,0.9651748192101717,-17.154499318683147
1760471343343482400,9.815482421875,-5.652237825942039,1.0237684624761343,-17.0286587700963
1760471343353444600,9.825444580078125,-5.655280846899747,1.1248141770243645,-16.823078914362192
1760471343363406600,9.835406494140624,-5.666501329094171,1.2703946143478155,-16.54017967210412
1760471343373368600,9.84536865234375,-5.693661723220348,1.4649579860270023,-16.18242071143389
1760471343383330600,9.85533056640625,-5.743690951758623,1.7125754870235919,-15.759187115812301
1760471343393293600,9.86529345703125,-5.817454107105732,2.0165905825465917,-15.289949309384822
1760471343403255600,9.875255615234375,-5.907866199436784,2.381235795599222,-14.79889714603424
1760471343413217500,9.885217529296876,-6.01177256411314,2.8105127630382776,-14.302149401390551
1760471343423179500,9.895179443359375,-3.150603380548954,6.119220546919107,-11.369819353932142
1760471343433141500,9.9051416015625,-3.464813706871867,7.3621116527915,-9.989618210953473
1760471343443103500,9.915103515625,-3.413932245418429,8.056950358718634,-8.485478553617
1760471343453065700,9.925065673828126,-3.166128866460919,8.413184886300563,-7.653959340658783
1760471343463027500,9.93502734375,-2.7294351930245755,8.855623533129691,-7.094204812481999
1760471343472989400,9.944989501953126,-2.487568802900612,9.666840547293424,-6.444722082585096
1760471343482951700,9.95495166015625,-2.8680849543020126,11.505763947904109,-5.314490556687116
1760471343492913400,9.964913330078126,-3.7577585423260924,12.832436914312838,-3.0585639792770145
1760471343502875600,9.974875732421875,-5.009187759441137,14.65890882962942,-1.441781693100929
1760471343512837600,9.984837646484374,-5.440057549029588,15.70407605396509,0.35870062543451786
1760471343522799600,9.994799560546875,-4.2149014218121765,16.312046623778343,2.467414195883274
1760471343532762600,10.0047626953125,-3.218780260196328,16.568255427509545,4.528361806550622
1760471343542724600,10.014724609375,-2.6281112460568545,16.146484305655957,5.663107595002651
1760471343552686300,10.024686279296875,-2.203907051837444,14.953618921190499,6.484726760715246
1760471343562648600,10.034648681640626,-1.9089397706449032,14.134007003647088,6.719696961584686
1760471343572610600,10.044610595703125,-2.0353899755626914,13.624405622649192,7.171977203470468
1760471343582572500,10.054572509765626,-2.4864570422664283,12.967901031291484,8.305060611668228
1760471343592534500,10.064534423828125,-2.759996043244004,12.887007877933979,9.68641443181336
1760471343602496500,10.07449658203125,-3.042420361466706,13.084040854597092,10.756734217584132
1760471343612458500,10.08445849609375,-3.530499061964452,13.201562487649916,11.870000580155848
1760471343622420500,10.09442041015625,-3.8612931510806083,12.994557567548751,12.758399033677577
1760471343632382700,10.1043828125,-3.6098914553701875,12.893070538973808,12.871571823871134
1760471343642344400,10.114344482421876,-3.1893384771347044,12.713718180429934,12.89495036137104
1760471343652306400,10.124306396484375,-3.0418478222757575,12.381899132180212,13.41946289577484
1760471343662268700,10.1342685546875,-2.9361598348796365,12.311814957606792,14.06589149879813
1760471343672230400,10.14423046875,-2.713781404557824,12.4288105209589,14.01192259272337
1760471343682192600,10.154192626953124,-2.595638716997206,12.419417254191636,13.341080848455428
1760471343692155600,10.16415576171875,-2.6025685162603853,12.410353657770155,12.11095686969757
1760471343702117600,10.17411767578125,-2.766325538526475,12.360907782077788,10.7741015319705
1760471343712079600,10.18407958984375,-2.8232079939603802,12.152692901664972,9.703668933475017
1760471343722041600,10.19404150390625,-2.9070602893844244,12.242872938805817,8.719645621410011
1760471343732003300,10.20400341796875,-3.083311467042565,12.517600565046072,7.883314039734006
1760471343741965600,10.213965576171875,-3.201969410648942,12.726507519376277,6.425661992806196
1760471343751927600,10.223927490234376,-3.1559827354997396,12.385105819267034,4.68504465264678
1760471343761889500,10.2338896484375,-3.1939024240493774,12.094084060829877,2.876238157880306
1760471343771851500,10.2438515625,-2.9366894117116926,11.658521729511023,0.7232575756818056
1760471343781813500,10.2538134765625,-2.1565207390233874,10.869392628514767,-1.107404777061939
1760471343791775500,10.263775390625,-1.5047104429617524,10.378168615728615,-2.2981875100344418
1760471343801737500,10.273737548828125,-1.7376584903538226,10.80852987127304,-2.3294325431257485
1760471343811699700,10.28369970703125,-2.669097920961678,10.21832876690626,-2.8611703526079655
1760471343821661400,10.293661376953125,-4.743565815198421,8.849048830914496,-3.838806593984365
1760471343831623700,10.303623779296874,-6.483722552108764,8.145142436912655,-6.133747669443488
1760471343841585700,10.313585693359375,-6.845107886582612,6.925543943822383,-8.393647826659679
1760471343851548700,10.323548583984374,-5.953964518266916,6.107767425012588,-9.179891143086552
1760471343861510400,10.333510498046875,-4.452970173218846,6.670546853968501,-9.048071520090103
1760471343871472600,10.34347265625,-3.1932232096135613,7.037401559764146,-8.616596750345826
1760471343881434600,10.3534345703125,-2.984589227005839,5.974488250857592,-10.076263059705495
1760471343891396600,10.363396728515625,-3.0453163751691577,5.096362185025215,-12.856596373057364
1760471343901358600,10.373358642578125,-2.994302227246761,3.3269501275360582,-14.036196617758273
1760471343911320600,10.383320556640625,-2.926183215266466,2.9907547638982535,-14.490323364293575
1760471343921282600,10.393282470703125,-2.8724826047390697,2.718447642803192,-14.907670824486017
1760471343931244500,10.40324462890625,-2.8192507807672023,2.508766781491041,-15.286051717424392
1760471343941206500,10.41320654296875,-2.7616344581007954,2.355109420695901,-15.622812313729524
1760471343951168500,10.42316845703125,-2.6989199355125426,2.247475559929013,-15.919420932388304
1760471343961130500,10.433130615234376,-2.6317478489935398,2.1772966928094624,-16.17747565624714
1760471343971092500,10.443092529296875,-2.5642203731656075,2.1390806516617533,-16.38913453963399
1760471343981054500,10.453054443359376,-2.500648356965184,2.128542306512594,-16.54407492597699
1760471343991016700,10.4630166015625,-2.441826165640354,2.1391005254060027,-16.646660855704546
1760471344000979700,10.472979736328124,-2.38786076669693,2.1660481535643337,-16.702409046411514
1760471344010941400,10.48294140625,-2.343532380148768,2.204888464090228,-16.70870200907588
1760471344020903700,10.492903564453124,-2.315623213481903,2.2502871102184057,-16.662576217716932
1760471344030865700,10.50286572265625,-2.30792564471662,2.3016659997999667,-16.559308735466
1760471344040827400,10.512827392578124,-2.320852346307039,2.3652678266167637,-16.390434516316652
1760471344050789600,10.52278955078125,-2.3560966781675816,2.4529262363255024,-16.140239273786545
1760471344060751600,10.532751708984375,-2.416891046348214,2.577242351824045,-15.799914262998103
1760471344070713600,10.542713623046875,-2.5046686985224484,2.748750426608324,-15.37790699430108
1760471344080675600,10.552675537109375,-2.618835760450363,2.973713028204441,-14.895955836772918
1760471344090637600,10.562637451171875,-2.7533932839781046,3.2556448867350816,-14.382806407904624
1760471344100599600,10.572599609375,-2.907646857100725,3.594166647493839,-13.85802148630023
1760471344110561500,10.5825615234375,-3.083763302463293,3.9818490372627973,-13.339461722820996
1760471344120523500,10.5925234375,-3.271241099795699,4.4149984622210265,-12.847232332384586
1760471344130485500,10.602485595703126,-3.4583395424216983,4.8955420910388225,-12.392719801402091
1760471344140447700,10.61244775390625,-3.6269168244510888,5.4302761597275735,-11.987276714015007
1760471344150409500,10.622409423828126,-3.76436539324522,6.024138709211349,-11.639304987865685
1760471344160371500,10.632371337890625,-4.994264915597438,9.120973090171814,-9.649999302607775
1760471344170333700,10.642333740234376,-5.078057297527789,10.418241098397969,-7.853774056994914
1760471344180296700,10.652296630859375,-5.23074493650794,11.393953093713522,-6.187341896986961
1760471344190255400,10.66225537109375,-5.308109331217408,12.429466354519128,-4.654481756600737
1760471344200217600,10.672217529296875,-5.215794035613537,13.098892386770247,-3.3864649773001667
1760471344210179300,10.682179443359376,-5.028282920533418,13.491325185936688,-2.6711913861095904
1760471344220141300,10.692141357421875,-4.9754596773624415,14.36380944648981,-1.7435148151665925
1760471344230103600,10.702103515625,-5.184167894250154,14.947662643134594,0.16658873856067657
1760471344240065300,10.712065185546875,-5.40489855736494,14.904840569496153,2.0519477271318434
1760471344250027500,10.722027587890626,-5.484726711839437,15.202904647660255,3.5317461394160983
1760471344259989500,10.731989501953125,-5.315787026238441,15.10533625383377,4.837449967554211
1760471344269951200,10.741951171875,-4.453613731819391,15.189590408056974,6.901980112883448
1760471344279913500,10.75191357421875,-3.7393978329882023,14.784300465404986,8.7393241353482
1760471344289875500,10.76187548828125,-2.971446252316236,14.77534325196743,9.013305327135324
1760471344299837400,10.77183740234375,-2.1819313668727873,14.316851295959948,9.458392442646621
1760471344309799400,10.78179931640625,-1.5323209189429878,13.956218825680017,9.741178872179985
1760471344319761400,10.791761474609375,-0.8132686859965323,13.833208532083034,10.427108295464516
1760471344329723400,10.801723388671874,-0.3474778051525354,13.282822720754146,11.421896747171878
1760471344339685400,10.811685302734375,-0.21904577876776454,13.108456333929299,12.142110717374086
1760471344349647600,10.821647705078124,-0.5089809110119938,13.230271864783763,12.500209869784117
1760471344359609300,10.831609375,-1.0659563298642634,13.201148646152019,13.248427114677428
1760471344369572400,10.841572265625,-1.9570055901557206,13.029342465204,13.566093718934058
1760471344379534600,10.85153466796875,-2.873206242838502,12.687781775140762,13.436713305783272
1760471344389496300,10.861496337890625,-3.3129061123535033,12.192549111235142,12.941036405241489
1760471344399458300,10.871458251953126,-3.215089588984847,11.89222877857685,12.24070436259508
1760471344409420500,10.881420654296875,-3.001628040090203,11.680200477355719,11.814138992202281
1760471344419382300,10.89138232421875,-2.7806089154228566,11.840364151304959,11.071966872692107
1760471344429344500,10.901344482421875,-2.6341967034503817,12.129632344073057,10.338045864176749
1760471344439306500,10.911306396484376,-2.6633079393833876,12.548586070418358,9.72233213289082
1760471344449268200,10.921268310546875,-2.6314029810786246,12.866278393638133,9.132555391415954
1760471344459230500,10.93123046875,-2.6176225852683186,13.179017478364706,8.087669322109221
1760471344469192400,10.9411923828125,-2.59339298389703,13.42641870626211,6.680491324877739
1760471344479154400,10.951154541015624,-2.4531121142864225,13.653867863976954,5.471774291285872
1760471344489116400,10.961116455078125,-1.9995909324288368,13.898214380478858,4.400267341557145
1760471344499078400,10.971078369140624,-1.375861652469635,14.108368704521656,3.140354958257079
1760471344509040400,10.981040283203125,-0.8363362578511238,13.754390431433915,1.6398627175122498
1760471344519002400,10.99100244140625,-0.7041314349293708,12.907206616353989,-0.05170972897112369
1760471344528964600,11.000964599609375,-0.8475532329142094,11.451011782497167,-1.9902099406212568
1760471344538926300,11.01092626953125,-1.1179115580290555,9.99669326390624,-4.240264995649457
1760471344548889300,11.020889404296875,-1.653262297311425,8.59750918803811,-5.715213045293092
1760471344558851600,11.0308515625,-2.3494009799212217,7.063675818705558,-7.090243507635593
1760471344568813300,11.040813232421876,-3.1482612013369797,5.769378350722789,-8.259013146242498
1760471344578775300,11.050775390625,-4.166213671010732,4.473579246005416,-9.203740805229543
1760471344588737500,11.060737548828126,-4.874303488177061,4.19633817563951,-10.418312410068511
1760471344598699300,11.07069921875,-5.18382185729146,4.660845154152811,-11.140040291965008
1760471344608661500,11.08066162109375,-5.230431632775068,4.681326216645538,-11.017035843586921
1760471344618623500,11.09062353515625,-5.683194689741731,4.595726200771331,-11.446888565087317
1760471344628585200,11.100585205078126,-7.162222702175378,3.748934015357494,-13.028899397611617
1760471344638547500,11.11054736328125,-8.750099796384573,2.3837661908596752,-14.934943446815012
1760471344648509400,11.120509521484376,-8.78854380106926,1.9623662404060362,-15.406820954096316
1760471344658471400,11.130471435546875,-8.816613126733898,1.6376134772807358,-15.839162569803
1760471344668433400,11.140433349609374,-8.81472453650832,1.4161983390331268,-16.2130192633152
1760471344678395400,11.1503955078125,-8.782460097241401,1.2921294762939215,-16.50181633144021
1760471344688357400,11.160357421875,-8.735022638761997,1.2434867336779831,-16.68932627747655
1760471344698319400,11.1703193359375,-8.679312441977858,1.2517968813836573,-16.780791093730926
1760471344708281600,11.180281494140624,-8.621994225475191,1.3026555464833973,-16.786194414079187
1760471344718243300,11.190243408203125,-8.572561793786287,1.384496794345975,-16.712302663916347
1760471344728205600,11.20020556640625,-8.540114399167894,1.4912497806251048,-16.56069288330078
1760471344738168600,11.21016845703125,-8.53051830330491,1.624785559889674,-16.32908076068759
1760471344748130600,11.220130615234375,-8.54788269508183,1.7871651563227176,-16.024178945457933
1760471344758092300,11.23009228515625,-8.585857328689098,1.9814725074142217,-15.670369014674424
1760471344768054500,11.240054443359375,-8.63285347314179,2.211936044514179,-15.293766237324474
1760471344778016300,11.250016357421876,-8.687356047701835,2.4809289264947174,-14.903961448574066
1760471344787978500,11.259978515625,-8.762231548205017,2.788006916719675,-14.495439099872112
1760471344797940500,11.2699404296875,-8.86970583449602,3.1333792740255593,-14.065955796205996
1760471344807902500,11.27990234375,-2.3935119243264196,3.9395892736822367,-11.970052022969723
1760471344817864400,11.289864501953126,-3.0492934621065855,4.790730594216287,-11.154288597548007
1760471344827826400,11.299826416015625,-3.56805488563776,5.230996280920505,-10.161323854136466
1760471344837788400,11.309788330078124,-3.857475638619065,5.384951747879386,-9.214467950949071
1760471344847750400,11.31975048828125,-4.138368801751732,5.629411077105999,-8.66272955596745
1760471344857712400,11.32971240234375,-4.269111735427379,6.211487327206134,-8.189342813166975
1760471344867674400,11.33967431640625,-4.412671188317239,7.127712529808282,-7.440126620364189
1760471344877636400,11.34963623046875,-4.642409041491151,8.582657655864953,-6.411007444509863
1760471344887598600,11.3595986328125,-4.6788013743430374,10.209361032074689,-4.971185068783163
1760471344897560300,11.369560302734374,-4.6482595210850235,11.939727027332783,-3.381653193104267
1760471344907522600,11.3795224609375,-4.590543829697371,13.339404439675807,-1.0798539223134518
1760471344917484500,11.389484619140624,-4.931151164558529,14.22315243704319,1.1007096633374691
1760471344927446300,11.3994462890625,-5.403147329783439,14.875076714873313,2.5132044716775415
1760471344937408500,11.409408447265625,-5.717798970133066,14.94716463048458,3.246887579783797
1760471344947370500,11.41937060546875,-5.90412350577712,14.95147606394291,4.610780562040209
1760471344957333200,11.429333251953125,-6.649415803134441,14.944064326381682,5.98489858571291
1760471344967295500,11.43929541015625,-7.216811201453209,15.237239463460444,6.725557962572574
1760471344977257500,11.449257568359375,-6.697498573780059,15.30037717989683,8.535186879637838
1760471344987219500,11.459219482421876,-5.508944038251042,15.295146878027914,10.448954216569662
1760471344997181400,11.469181396484375,-4.019949343076348,15.612483811938763,11.869703643035887
1760471345007143400,11.479143310546876,-2.7299481109827757,15.423426051938533,13.405499836874007
1760471345017105400,11.48910546875,-1.770006516250968,15.064139151048659,14.074908333468436
1760471345027067400,11.4990673828125,-1.5217624077886343,14.026126474642753,13.881094903373718
1760471345037029600,11.509029541015625,-2.076915579649806,12.632155164986848,13.174746961438656
1760471345046991400,11.518991455078124,-2.8780647887855766,11.281651241135597,12.306219914078712
1760471345056953300,11.528953369140625,-3.534747074797749,10.196329701066016,11.406977410459518
1760471345066915600,11.53891552734375,-3.970454367545247,9.594242928594351,11.002048702335356
1760471345076877300,11.548877197265625,-4.272082860192656,9.56928968912363,11.026626678752898
1760471345086839600,11.558839599609374,-4.435328133544326,9.954113182330131,11.072177300572395
1760471345096801500,11.568801513671875,-4.608445981612801,10.417879863870143,11.330740558475256
1760471345106763300,11.57876318359375,-4.9074154841840265,11.116446650409697,11.462483609104156
1760471345116725500,11.5887255859375,-5.243429646036028,11.647847190761565,11.70845158932805
1760471345126687500,11.5986875,-5.501204383909702,12.270084770858286,11.652834331524371
1760471345136649500,11.6086494140625,-5.559533238759636,13.048258762598037,10.978195533061028
1760471345146611500,11.618611572265625,-5.58604715167582,13.24920569783449,9.805095171773432
1760471345156573400,11.628573486328126,-5.594854727509618,13.32737030301094,8.218044006994367
1760471345166535400,11.638535400390625,-5.5620414221882815,13.548929818165302,6.57200230858624
1760471345176498400,11.64849853515625,-5.637719471246004,13.659870903784036,4.995720375102758
1760471345186460400,11.65846044921875,-5.832891330212354,13.838057725679874,3.542500757664442
1760471345196422400,11.66842236328125,-6.0534343618005515,13.610965126317739,2.0554145264595745
1760471345206384400,11.67838427734375,-6.313840032699704,13.378161748093365,0.20488895086050032
1760471345216346600,11.6883466796875,-6.548457182347774,13.087875318193435,-1.913637573072314
1760471345226308400,11.698308349609375,-6.659895696094631,12.617913873666524,-3.8921746115565297
1760471345236270300,11.708270263671874,-6.327860374745726,12.13035130599737,-5.702789032527804
1760471345246232600,11.718232666015625,-5.559648389571905,11.166055023187399,-6.860500101503729
1760471345256194300,11.7281943359375,-4.547850935396552,10.299356360298395,-8.537623751395941
1760471345266156500,11.738156494140625,-3.95202263879776,8.410728140798211,-9.73880045261085
1760471345276118500,11.748118408203124,-3.909874518898129,6.51545390741229,-11.051067877048254
1760471345286080300,11.758080322265625,-4.122388557809591,5.883957500582933,-12.9173679448843
1760471345296042500,11.76804248046875,-4.40555434204936,5.400733254379034,-13.814651131129263
1760471345306004500,11.77800439453125,-4.347670892879367,4.863775079900026,-14.327676641356945
1760471345315966500,11.787966552734375,-4.350231098756194,4.3875007989645,-14.806107808065413
1760471345325928400,11.797928466796876,-4.387003955358266,3.972358739861846,-15.256334624552727
1760471345335890400,11.807890380859375,-4.432493202379345,3.625284839335084,-15.680218208515644
1760471345345852400,11.817852294921876,-4.467130800518393,3.348534182834625,-16.079235062247513
1760471345355814400,11.827814453125,-4.486966550844907,3.137521196135878,-16.44328581653833
1760471345365776600,11.837776611328126,-4.497863792434335,2.9837632975757122,-16.752725859719515
1760471345375738400,11.84773828125,-4.497336553689837,2.880382418078184,-17.00260896756053
1760471345385700400,11.857700439453126,-4.4888890433400865,2.817105000910163,-17.189152114391327
1760471345395663600,11.86766357421875,-4.48304557800889,2.7802380362838504,-17.307468697214127
1760471345405625300,11.877625244140624,-4.48524688744545,2.7655957629472017,-17.34444438291192
1760471345415587300,11.88758740234375,-4.4957209351867435,2.7760148656308647,-17.287328410983086
1760471345425549600,11.897549560546874,-4.5146389861464495,2.8151731560647484,-17.132356460458038
1760471345435511300,11.90751123046875,-4.5481963878333564,2.8854186586797237,-16.877550509262083
1760471345445473500,11.9174736328125,-4.600744905716181,2.9923791502296924,-16.52865640757084
1760471345455435500,11.927435546875,-4.668413835841417,3.148134360086918,-16.100778201013803
1760471345465397200,11.937397216796874,-4.746295532423257,3.368199252769351,-15.607267538595199
1760471345475359500,11.947359375,-4.836040100756287,3.6635055566579102,-15.061740273213386
1760471345485321500,11.957321533203125,-4.9441690515637395,4.037079341575503,-14.482935007607937
1760471345495283500,11.967283447265626,-5.436163464200496,6.649149261152744,-12.649568072080612
1760471345505245400,11.977245361328125,-5.861577326470613,8.036452345091105,-10.773813947200775
1760471345515207400,11.98720751953125,-6.208895557147264,9.374497184863687,-9.276554697027802
1760471345525169400,11.99716943359375,-6.218056184202433,10.290396808773279,-7.509871187719702
1760471345535131400,12.00713134765625,-5.535504128396511,10.444032542258501,-5.936393790262938
1760471345545093600,12.01709375,-4.804549568471312,10.04960301631689,-5.5384676543772215
1760471345555055400,12.027055419921876,-4.1481268101781605,9.557512157568334,-5.798367713841795
1760471345565017300,12.037017333984375,-3.457567973527312,9.200244195285439,-6.191138366660476
1760471345574979600,12.0469794921875,-3.037747985741496,9.783212425789236,-6.233474118086695
1760471345584941300,12.05694140625,-3.092925390823185,11.404667379951476,-5.343564675480127
1760471345594903600,12.066903564453124,-4.058303039129078,13.501108913326263,-3.7144179977715015
1760471345604865500,12.076865478515625,-5.706924524897337,15.765962893557548,-1.6592086384952067
1760471345614827500,12.08682763671875,-6.811632902482152,17.342027969419956,0.8957336187154055
1760471345624789500,12.09678955078125,-7.221569794157147,18.427609037208555,3.8922354018330574
1760471345634751500,12.10675146484375,-7.2703347018480295,18.900089771080015,6.594018325561285
1760471345644714200,12.11671435546875,-6.479481845799088,18.650660252225396,8.251058387845754
1760471345654676500,12.126676513671875,-5.728350759285688,17.67900717691183,9.298419907355308
1760471345664638500,12.136638427734376,-4.903206049795449,16.676948441940546,9.18176219765544
1760471345674600400,12.146600341796875,-3.62471376144886,15.588395664864777,8.9776348788172
1760471345684562400,12.1565625,-2.3361643355987964,14.704423211091756,9.59873497931659
1760471345694524400,12.1665244140625,-1.0605872040465474,14.219758702951669,10.973194363772869
1760471345704486400,12.176486328125,-0.07514058118015528,14.31904909826517,12.175492762494086
1760471345714448400,12.186448486328125,0.003389642438292503,13.698228399229048,13.32586223653555
1760471345724410600,12.19641064453125,-0.24248934432789682,13.629559936672448,13.335271869915722
1760471345734372400,12.206372314453125,-0.48795127472579475,13.693926318120955,13.363560391288996
1760471345744334300,12.216334228515626,-0.7357584530755877,13.714967937105893,13.130589839804172
1760471345754296600,12.226296630859375,-1.0145356469675897,13.737818066817521,12.913138344490527
1760471345764258300,12.23625830078125,-1.3948124366551637,13.468862009716034,12.576646628254652
1760471345774220500,12.246220458984375,-1.8730032187364993,12.825560598802566,11.438363897848129
1760471345784182500,12.2561826171875,-2.316944671344012,11.940935818600654,9.86994670639038
1760471345794144500,12.26614453125,-2.6909169540598987,11.083623408216237,9.00631912150979
1760471345804106500,12.2761064453125,-2.9909608078643677,10.69135427517891,8.263519810011982
1760471345814068500,12.286068359375,-3.4569027876168485,10.816126317751406,7.499089681464433
1760471345824030500,12.296030517578124,-3.99258611985445,11.208678359383343,7.198142741340399
1760471345833992400,12.305992431640625,-4.351736827144027,11.364248860323428,6.52612318546474
1760471345843954400,12.315954345703124,-4.1022982482001185,11.2629933024168,5.051105577716231
1760471345853916400,12.32591650390625,-3.549761104056239,10.911295833742617,3.662769059076905
1760471345863878400,12.33587841796875,-3.00890767570436,10.526726023036241,2.2153186726897953
1760471345873840400,12.34584033203125,-2.590599553786218,10.7958480843544,1.9669997454255819
1760471345883802400,12.35580224609375,-2.5967659674614665,11.837685872006416,2.340906707820296
1760471345893764600,12.3657646484375,-3.0646903532028196,12.511136921989918,1.1575111624896526
1760471345903726300,12.375726318359375,-3.8977714086502786,11.927563126808405,-1.1190934612900019
1760471345913689300,12.385689453125,-4.648889635682106,10.794246494376658,-3.2379853114038704
1760471345923651600,12.395651611328125,-4.9310184780895705,9.554270399168134,-4.670247481009364
1760471345933613600,12.405613525390624,-4.817846272417903,8.951494475388527,-5.574008923357725
1760471345943575300,12.4155751953125,-4.433596779707074,8.43210235273838,-6.585888795119524
1760471345953537500,12.42553759765625,-4.639769925159215,7.061890688854455,-7.8208555377334354
1760471345963499500,12.43549951171875,-5.2397132558614015,5.42737225497961,-9.816583364993333
1760471345973461500,12.44546142578125,-5.630817436772585,3.806752582597732,-12.066090138489008
1760471345983423500,12.455423583984375,-5.856487309855222,3.104035398380458,-13.511527431488036
1760471345993385500,12.465385498046874,-5.762350644043088,2.6152155241265893,-13.890236825728415
1760471346003347500,12.475347412109375,-5.706925109419227,2.214235261367261,-14.22676828945279
1760471346013309400,12.485309326171874,-5.667586786243319,1.8858979177534578,-14.531410576963424
1760471346023271700,12.495271728515625,-5.609950005310774,1.6177829876512289,-14.836044681167602
1760471346033233400,12.5052333984375,-5.52629323245883,1.4006184925854206,-15.151036513257026
1760471346043195400,12.5151953125,-5.432565731969476,1.2282856574147938,-15.458935756736993
1760471346053157400,12.525157470703125,-5.354477114638686,1.0936363639503717,-15.726409466326237
1760471346063119400,12.535119384765625,-5.300940170240402,0.9910130248218775,-15.936002649354934
1760471346073081600,12.54508154296875,-5.26086418043971,0.9205290372759103,-16.092904691159724
1760471346083043300,12.555043212890626,-5.224062682265043,0.8827432042390108,-16.204562400615213
1760471346093005300,12.56500537109375,-5.18809237421751,0.8775006274104118,-16.270470750808716
1760471346102967600,12.574967529296876,-5.161011475068331,0.9036690878897905,-16.276601216387746
1760471346112929300,12.58492919921875,-5.152199807581305,0.9671779757261275,-16.19942445320487
1760471346122891500,12.5948916015625,-5.17171816252172,1.0779437047779559,-16.016091500592232
