time,seconds_elapsed,z,y,x
1760471333559417600,0.03141748046875,-0.8467864990234375,-0.554840087890625,-0.006927490234375
1760471333569379600,0.041379638671875,-0.8284454345703125,-0.550018310546875,0.0020751953125
1760471333579342600,0.051342529296875,-0.8204193115234375,-0.543731689453125,0.0134735107421875
1760471333589304300,0.06130419921875,-0.8266754150390625,-0.54095458984375,0.006683349609375
1760471333599266600,0.0712666015625,-0.8384552001953125,-0.535797119140625,0.0062408447265625
1760471333609228500,0.081228515625,-0.842864990234375,-0.5337066650390625,0.0081939697265625
1760471333619190500,0.0911904296875,-0.8508453369140625,-0.5373077392578125,0.004180908203125
1760471333629153500,0.101153564453125,-0.8553619384765625,-0.5499267578125,-0.0100860595703125
1760471333639115500,0.111115478515625,-0.8480377197265625,-0.55133056640625,-0.0044708251953125
1760471333649077500,0.121077392578125,-0.844268798828125,-0.5432586669921875,-0.00140380859375
1760471333659039500,0.13103955078125,-0.8426513671875,-0.5444183349609375,-0.003692626953125
1760471333669001500,0.14100146484375,-0.838470458984375,-0.5480194091796875,0.0027923583984375
1760471333678964700,0.15096484375,-0.83148193359375,-0.5477294921875,0.00225830078125
1760471333688926500,0.160926513671875,-0.8243560791015625,-0.547088623046875,0.00640869140625
1760471333698888400,0.170888427734375,-0.8221282958984375,-0.5496673583984375,0.0086212158203125
1760471333708850700,0.1808505859375,-0.8211517333984375,-0.54931640625,0.0049285888671875
1760471333718812400,0.1908125,-0.8256378173828125,-0.5443115234375,-0.00164794921875
1760471333728775400,0.200775390625,-0.8307037353515625,-0.537445068359375,0.0010223388671875
1760471333738737700,0.210737548828125,-0.8509521484375,-0.5385284423828125,0.00250244140625
1760471333748699400,0.220699462890625,-0.8614349365234375,-0.5439300537109375,-0.00372314453125
1760471333758661600,0.23066162109375,-0.86151123046875,-0.5431365966796875,-0.0033721923828125
1760471333768623600,0.24062353515625,-0.8587188720703125,-0.5418853759765625,-0.00726318359375
1760471333778586600,0.250586669921875,-0.85137939453125,-0.54339599609375,-0.0064239501953125
1760471333788548400,0.26054833984375,-0.84503173828125,-0.5405731201171875,-0.0050201416015625
1760471333798510600,0.270510498046875,-0.843505859375,-0.5333404541015625,-0.0028839111328125
1760471333808472600,0.28047265625,-0.834564208984375,-0.5328521728515625,-0.0001678466796875
1760471333818434600,0.2904345703125,-0.822052001953125,-0.534820556640625,-0.0047149658203125
1760471333828397600,0.3003974609375,-0.8126678466796875,-0.536773681640625,0.0009002685546875
1760471333838359600,0.310359619140625,-0.81549072265625,-0.539703369140625,0.008087158203125
1760471333848321500,0.320321533203125,-0.8291778564453125,-0.542022705078125,0.007171630859375
1760471333858283500,0.330283447265625,-0.82781982421875,-0.5374603271484375,-0.001739501953125
1760471333868245500,0.34024560546875,-0.8228759765625,-0.5272064208984375,0.0138397216796875
1760471333878207500,0.35020751953125,-0.8336029052734375,-0.529693603515625,0.0201263427734375
1760471333888170500,0.36017041015625,-0.84503173828125,-0.530487060546875,-0.006439208984375
1760471333898132500,0.370132568359375,-0.853759765625,-0.5211944580078125,-0.01763916015625
1760471333908094700,0.3800947265625,-0.868072509765625,-0.518035888671875,-0.0208282470703125
1760471333918056400,0.390056396484375,-0.8717803955078125,-0.5157928466796875,-0.02410888671875
1760471333928018700,0.400018798828125,-0.871856689453125,-0.507049560546875,-0.010467529296875
1760471333937981700,0.409981689453125,-0.8703155517578125,-0.50390625,-0.0054931640625
1760471333947943400,0.419943359375,-0.863494873046875,-0.501922607421875,-0.0023956298828125
1760471333957905400,0.429905517578125,-0.8575439453125,-0.4986724853515625,-0.005859375
1760471333967867600,0.43986767578125,-0.852691650390625,-0.4985504150390625,-0.00372314453125
1760471333977829400,0.449829345703125,-0.8422088623046875,-0.5004425048828125,-0.000457763671875
1760471333987792400,0.45979248046875,-0.8400421142578125,-0.501495361328125,0.00347900390625
1760471333997754600,0.469754638671875,-0.84075927734375,-0.4923858642578125,0.00140380859375
1760471334007716400,0.47971630859375,-0.8459320068359375,-0.4803924560546875,-0.005035400390625
1760471334017678600,0.4896787109375,-0.8564605712890625,-0.4721221923828125,-0.00421142578125
1760471334027640600,0.499640625,-0.8788909912109375,-0.47509765625,0.002105712890625
1760471334037603600,0.509603515625,-0.893463134765625,-0.475128173828125,-0.0018463134765625
1760471334047565600,0.519565673828125,-0.90478515625,-0.473846435546875,-0.003387451171875
1760471334057527600,0.529527587890625,-0.9119110107421875,-0.469085693359375,-0.004852294921875
1760471334067489500,0.539489501953125,-0.9058074951171875,-0.4631500244140625,-0.0059356689453125
1760471334077451500,0.549451416015625,-0.901153564453125,-0.46038818359375,-0.0035552978515625
1760471334087414500,0.55941455078125,-0.891326904296875,-0.4566802978515625,-0.000885009765625
1760471334097376500,0.56937646484375,-0.88153076171875,-0.45025634765625,0.0059661865234375
1760471334107338500,0.57933837890625,-0.873260498046875,-0.4439849853515625,0.0089569091796875
1760471334117300500,0.589300537109375,-0.8668365478515625,-0.439178466796875,0.0045928955078125
1760471334127262700,0.5992626953125,-0.8628082275390625,-0.428680419921875,0.002716064453125
1760471334137225700,0.609225830078125,-0.8630523681640625,-0.4167022705078125,0.000732421875
1760471334147187500,0.6191875,-0.8581390380859375,-0.40997314453125,0.0037841796875
1760471334157149400,0.6291494140625,-0.8486328125,-0.410858154296875,0.003662109375
1760471334167111700,0.639111572265625,-0.8378753662109375,-0.4050750732421875,0.0088043212890625
1760471334177073700,0.64907373046875,-0.851654052734375,-0.3881378173828125,0.0058746337890625
1760471334187036000,0.659035888671875,-0.8780364990234375,-0.3779296875,-0.0011138916015625
1760471334196999000,0.6689990234375,-0.89105224609375,-0.3657684326171875,0.0084228515625
1760471334206960600,0.678960693359375,-0.91632080078125,-0.3484954833984375,0.0154571533203125
1760471334216923000,0.6889228515625,-0.9562835693359375,-0.33868408203125,0.0251312255859375
1760471334226884900,0.698884765625,-0.9907379150390625,-0.334259033203125,0.0475006103515625
1760471334236846600,0.7088466796875,-1.0156707763671875,-0.3328857421875,0.059814453125
1760471334246809600,0.7188095703125,-1.0390167236328125,-0.332122802734375,0.051727294921875
1760471334256771800,0.728771728515625,-1.05517578125,-0.3287353515625,0.03472900390625
1760471334266733800,0.73873388671875,-1.055755615234375,-0.3169708251953125,0.0291290283203125
1760471334276695800,0.74869580078125,-1.0476226806640625,-0.303924560546875,0.0254058837890625
1760471334286657800,0.75865771484375,-1.0478515625,-0.295074462890625,0.029327392578125
1760471334296620800,0.768620849609375,-1.0456695556640625,-0.284149169921875,0.0338897705078125
1760471334306582800,0.778582763671875,-1.0468292236328125,-0.280029296875,0.0401763916015625
1760471334316544800,0.788544677734375,-1.0504302978515625,-0.2797393798828125,0.046844482421875
1760471334326506800,0.7985068359375,-1.056304931640625,-0.27642822265625,0.04327392578125
1760471334336468700,0.80846875,-1.064971923828125,-0.2718353271484375,0.03924560546875
1760471334346431700,0.818431640625,-1.0859375,-0.2711639404296875,0.032196044921875
1760471334356393700,0.828393798828125,-1.111907958984375,-0.2817230224609375,0.039337158203125
1760471334366355700,0.838355712890625,-1.1379547119140625,-0.3026580810546875,0.029571533203125
1760471334376317700,0.848317626953125,-1.1602783203125,-0.3213348388671875,0.02392578125
1760471334386280000,0.858280029296875,-1.149688720703125,-0.330810546875,0.0539398193359375
1760471334396241700,0.86824169921875,-1.104156494140625,-0.3121185302734375,0.0825653076171875
1760471334406204700,0.87820458984375,-1.048095703125,-0.3434295654296875,0.069732666015625
1760471334416166700,0.888166748046875,-1.000030517578125,-0.37310791015625,0.016845703125
1760471334426129000,0.89812890625,-0.9481048583984375,-0.3747711181640625,0.011322021484375
1760471334436090600,0.908090576171875,-0.9004669189453125,-0.385284423828125,0.0247344970703125
1760471334446052900,0.918052978515625,-0.8661346435546875,-0.4052734375,0.0157928466796875
1760471334456016000,0.928015869140625,-0.8618316650390625,-0.4303436279296875,-0.0039215087890625
1760471334465977600,0.9379775390625,-0.8578033447265625,-0.4502105712890625,-0.026702880859375
1760471334475939800,0.94793994140625,-0.852996826171875,-0.4648590087890625,-0.0359039306640625
1760471334485901800,0.95790185546875,-0.838958740234375,-0.4767608642578125,-0.031890869140625
1760471334495863600,0.967863525390625,-0.819732666015625,-0.494781494140625,-0.030303955078125
1760471334505826800,0.977826904296875,-0.7957763671875,-0.506805419921875,-0.0253448486328125
1760471334515788800,0.987788818359375,-0.7711639404296875,-0.5304718017578125,-0.0461578369140625
1760471334525750800,0.997750732421875,-0.7658843994140625,-0.55743408203125,-0.070709228515625
1760471334535712800,1.007712646484375,-0.7556915283203125,-0.5668182373046875,-0.0384979248046875
1760471334545674800,1.0176748046875,-0.7192840576171875,-0.5760498046875,0.0052490234375
1760471334555637000,1.027636962890625,-0.6803131103515625,-0.5909881591796875,0.0082550048828125
1760471334565599700,1.037599853515625,-0.6466522216796875,-0.5925445556640625,0.0075225830078125
1760471334575561700,1.047561767578125,-0.621612548828125,-0.6178131103515625,-0.00457763671875
1760471334585524000,1.05752392578125,-0.6247100830078125,-0.626190185546875,-0.0095062255859375
1760471334595485700,1.067485595703125,-0.652099609375,-0.6200408935546875,-0.009124755859375
1760471334605447700,1.07744775390625,-0.6858062744140625,-0.6228179931640625,-0.0071258544921875
1760471334615410700,1.08741064453125,-0.7139129638671875,-0.6241912841796875,-0.01483154296875
1760471334625373000,1.097373046875,-0.7274017333984375,-0.63165283203125,-0.023468017578125
1760471334635334700,1.107334716796875,-0.7472686767578125,-0.637054443359375,-0.0146026611328125
1760471334645297000,1.117296875,-0.77911376953125,-0.6424560546875,0.0011444091796875
1760471334655259000,1.1272587890625,-0.792022705078125,-0.644500732421875,-0.01416015625
1760471334665220900,1.137220947265625,-0.7909698486328125,-0.638397216796875,-0.0315399169921875
1760471334675183900,1.147183837890625,-0.7935028076171875,-0.6319580078125,-0.041748046875
1760471334685145900,1.157145751953125,-0.8108673095703125,-0.634979248046875,-0.0522918701171875
1760471334695107600,1.167107666015625,-0.8008575439453125,-0.637542724609375,-0.0465545654296875
1760471334705069800,1.17706982421875,-0.7787017822265625,-0.64044189453125,-0.0254974365234375
1760471334715031800,1.18703173828125,-0.756072998046875,-0.6549835205078125,-0.0142974853515625
1760471334724993800,1.196993896484375,-0.73193359375,-0.6724853515625,-0.0140533447265625
1760471334734956800,1.206956787109375,-0.72430419921875,-0.67840576171875,-0.0167236328125
1760471334744918800,1.216918701171875,-0.716552734375,-0.6737823486328125,-0.0300140380859375
1760471334754880800,1.226880859375,-0.7268829345703125,-0.633087158203125,-0.0687408447265625
1760471334764842800,1.2368427734375,-0.7482452392578125,-0.5778961181640625,-0.106903076171875
1760471334774804700,1.2468046875,-0.7374267578125,-0.4672088623046875,-0.1237335205078125
1760471334784767700,1.256767822265625,-0.7165069580078125,-0.3550872802734375,-0.09033203125
1760471334794729700,1.266729736328125,-0.7493133544921875,-0.5828094482421875,-0.0840301513671875
1760471334804691700,1.276691650390625,-0.7602691650390625,-0.803863525390625,-0.127105712890625
1760471334814654000,1.286654052734375,-0.7573699951171875,-0.823974609375,-0.0774078369140625
1760471334824615700,1.29661572265625,-0.7584686279296875,-0.724945068359375,0.014434814453125
1760471334834578000,1.306577880859375,-0.7764129638671875,-0.5713958740234375,0.0894317626953125
1760471334844541000,1.316541015625,-0.7997589111328125,-0.464385986328125,0.1209716796875
1760471334854502700,1.326502685546875,-0.8554229736328125,-0.42657470703125,0.1234588623046875
1760471334864464600,1.336464599609375,-0.8556976318359375,-0.52752685546875,-0.0710296630859375
1760471334874427000,1.346427001953125,-0.9233551025390625,-0.58648681640625,-0.1093902587890625
1760471334884388600,1.356388671875,-0.9574432373046875,-0.5477142333984375,-0.0576171875
1760471334894350800,1.366350830078125,-0.9436798095703125,-0.469482421875,-0.07220458984375
1760471334904313900,1.37631396484375,-0.9261932373046875,-0.402862548828125,-0.110504150390625
1760471334914275800,1.38627587890625,-0.90130615234375,-0.3816680908203125,-0.1283416748046875
1760471334924237800,1.39623779296875,-0.8430633544921875,-0.447967529296875,-0.09637451171875
1760471334934199800,1.40619970703125,-0.797882080078125,-0.5458221435546875,-0.0456695556640625
1760471334944161800,1.416161865234375,-0.79296875,-0.588775634765625,0.0132904052734375
1760471334954124800,1.426124755859375,-0.81536865234375,-0.5620574951171875,0.0525360107421875
1760471334964086800,1.436086669921875,-0.8477630615234375,-0.497802734375,0.1479644775390625
1760471334974048800,1.446048828125,-0.89410400390625,-0.4736785888671875,0.1597137451171875
1760471334984010800,1.4560107421875,-0.8918609619140625,-0.51837158203125,0.073822021484375
1760471334993972700,1.46597265625,-0.8480377197265625,-0.5878143310546875,-0.04718017578125
1760471335003935000,1.47593505859375,-0.8491363525390625,-0.6053619384765625,-0.123931884765625
1760471335013897700,1.485897705078125,-0.8776092529296875,-0.532012939453125,-0.1300201416015625
1760471335023859700,1.495859619140625,-0.895477294921875,-0.4582672119140625,-0.0981292724609375
1760471335033821700,1.50582177734375,-0.990142822265625,-0.3641357421875,-0.05584716796875
1760471335043783700,1.51578369140625,-0.9515533447265625,-0.3687896728515625,-0.1844024658203125
1760471335053745700,1.52574560546875,-0.9961395263671875,-0.3115234375,-0.3346710205078125
1760471335063708000,1.5357080078125,-1.079833984375,-0.24859619140625,-0.20599365234375
1760471335073671000,1.5456708984375,-1.1680450439453125,-0.359710693359375,-0.0888214111328125
1760471335083632600,1.555632568359375,-1.1192779541015625,-0.4557647705078125,-0.0661163330078125
1760471335093595000,1.565594970703125,-0.9169158935546875,-0.3667449951171875,-0.12115478515625
1760471335103556900,1.575556884765625,-0.956451416015625,-0.4309234619140625,-0.19036865234375
1760471335113518600,1.5855185546875,-1.0311431884765625,-0.5957794189453125,-0.248199462890625
1760471335123480800,1.595480712890625,-1.077362060546875,-0.7435455322265625,-0.3001556396484375
1760471335133443800,1.60544384765625,-1.1134185791015625,-0.8814697265625,-0.418212890625
1760471335143405600,1.615405517578125,-1.1556243896484375,-0.9694366455078125,-0.5795440673828125
1760471335153367800,1.625367919921875,-1.2285919189453125,-1.0124053955078125,-0.7504425048828125
1760471335163329800,1.635329833984375,-1.2929229736328125,-1.060546875,-0.8783721923828125
1760471335173292300,1.645292236328125,-1.3745269775390625,-1.1208343505859375,-0.9461822509765625
1760471335183254000,1.65525390625,-1.43304443359375,-1.196685791015625,-0.97149658203125
1760471335193217000,1.665217041015625,-1.4814453125,-1.22381591796875,-1.0334320068359375
1760471335203179000,1.675178955078125,-1.5550689697265625,-1.2078857421875,-1.1231842041015625
1760471335213141000,1.68514111328125,-1.6258392333984375,-1.059356689453125,-1.1865997314453125
1760471335223103000,1.69510302734375,-1.6853790283203125,-0.9240570068359375,-1.1312255859375
1760471335233065200,1.705065185546875,-1.63128662109375,-0.8153839111328125,-1.0223388671875
1760471335243028200,1.7150283203125,-1.5323944091796875,-0.72479248046875,-0.9178619384765625
1760471335252990000,1.724989990234375,-1.4171142578125,-0.611328125,-0.8218231201171875
1760471335262952200,1.7349521484375,-1.3740997314453125,-0.3883819580078125,-0.6739959716796875
1760471335272914200,1.7449140625,-1.403228759765625,-0.2537078857421875,-0.4774169921875
1760471335282876000,1.7548759765625,-1.4099273681640625,-0.150421142578125,-0.257354736328125
1760471335292838100,1.764838134765625,-1.314910888671875,-0.0216522216796875,-0.07470703125
1760471335302801200,1.77480126953125,-1.1662445068359375,0.1054534912109375,0.0966033935546875
1760471335312763000,1.784762939453125,-1.021820068359375,0.2484588623046875,0.201416015625
1760471335322725000,1.79472509765625,-0.8419342041015625,0.3977508544921875,0.3077239990234375
1760471335332687000,1.80468701171875,-0.691436767578125,0.45458984375,0.532440185546875
1760471335342649000,1.814649169921875,-0.5605926513671875,0.490020751953125,0.6895599365234375
1760471335352611000,1.824611083984375,-0.4289093017578125,0.491058349609375,0.8129119873046875
1760471335362573000,1.834572998046875,-0.316619873046875,0.4717254638671875,0.920318603515625
1760471335372536000,1.8445361328125,-0.2218780517578125,0.5333709716796875,1.0721588134765625
1760471335382498000,1.854498046875,-0.238555908203125,0.54119873046875,1.269744873046875
1760471335392460000,1.8644599609375,-0.3345947265625,0.4760589599609375,1.21697998046875
1760471335402422000,1.874422119140625,-0.3475799560546875,0.487457275390625,1.1217041015625
1760471335412384000,1.884384033203125,-0.2715606689453125,0.5059967041015625,1.0777130126953125
1760471335422346200,1.89434619140625,-0.1511077880859375,0.46875,1.017181396484375
1760471335432309200,1.904309326171875,-0.138916015625,0.48583984375,0.8624420166015625
1760471335442271000,1.91427099609375,-0.1925201416015625,0.4653778076171875,0.747100830078125
1760471335452233000,1.92423291015625,-0.2841949462890625,0.3984222412109375,0.6581878662109375
1760471335462195200,1.9341953125,-0.3796844482421875,0.425201416015625,0.605621337890625
1760471335472157000,1.944156982421875,-0.4403228759765625,0.5057525634765625,0.59906005859375
1760471335482119200,1.954119140625,-0.52874755859375,0.6165008544921875,0.57177734375
1760471335492082200,1.964082275390625,-0.6825103759765625,0.6867218017578125,0.4921417236328125
1760471335502044000,1.9740439453125,-0.8069305419921875,0.7329559326171875,0.3000335693359375
1760471335512006100,1.984006103515625,-0.9029998779296875,0.772003173828125,0.08001708984375
1760471335521968000,1.993968017578125,-1.0655059814453125,0.76458740234375,-0.1470794677734375
1760471335531929900,2.003929931640625,-1.13482666015625,0.7178955078125,-0.4836578369140625
1760471335541892000,2.01389208984375,-1.2245941162109375,0.5511932373046875,-0.8202667236328125
1760471335551855000,2.023855224609375,-1.3776702880859375,0.3296356201171875,-1.1511993408203125
1760471335561817000,2.033817138671875,-1.536590576171875,0.0128173828125,-1.3967132568359375
1760471335571779000,2.043779052734375,-1.6390533447265625,-0.189422607421875,-1.669769287109375
1760471335581741000,2.053740966796875,-1.686126708984375,-0.2548675537109375,-1.868621826171875
1760471335591703300,2.063703369140625,-1.659149169921875,-0.2196807861328125,-1.85321044921875
1760471335601665000,2.0736650390625,-1.6264495849609375,-0.078094482421875,-1.7635345458984375
1760471335611628000,2.0836279296875,-1.6392822265625,0.077880859375,-1.7775115966796875
1760471335621590000,2.093590087890625,-1.66619873046875,0.091064453125,-1.8527374267578125
1760471335631552000,2.103552001953125,-1.6121673583984375,-0.001922607421875,-1.87646484375
1760471335641514000,2.113513916015625,-1.5069732666015625,-0.1301727294921875,-1.98388671875
1760471335651476200,2.123476318359375,-1.4301910400390625,-0.25872802734375,-2.11907958984375
1760471335742381000,2.214381103515625,-1.32415771484375,-0.147705078125,-1.9009857177734375
1760471335752343300,2.22434326171875,-1.2859039306640625,-0.0926513671875,-1.841552734375
1760471335762305000,2.234304931640625,-1.2734375,-0.0588226318359375,-1.7766571044921875
1760471335772267000,2.24426708984375,-1.3165435791015625,-0.0542144775390625,-1.7220001220703125
1760471335782229200,2.254229248046875,-1.35931396484375,-0.0243682861328125,-1.710205078125
1760471335792191000,2.26419091796875,-1.399993896484375,0.0107269287109375,-1.7125244140625
1760471335802154000,2.274154052734375,-1.4373321533203125,0.03564453125,-1.7267608642578125
1760471335812116200,2.2841162109375,-1.4381561279296875,0.15704345703125,-1.718505859375
1760471335822078000,2.294077880859375,-1.4186553955078125,0.3275909423828125,-1.612945556640625
1760471335832040200,2.304040283203125,-1.3939971923828125,0.4380340576171875,-1.421112060546875
1760471335842002200,2.314002197265625,-1.3826904296875,0.4600830078125,-1.294830322265625
1760471335851964000,2.3239638671875,-1.357177734375,0.477508544921875,-1.27447509765625
1760471335861927000,2.333927001953125,-1.28472900390625,0.589324951171875,-1.257171630859375
1760471335871889200,2.34388916015625,-1.21307373046875,0.7352447509765625,-1.15057373046875
1760471335881851000,2.353850830078125,-1.159759521484375,0.7989654541015625,-0.905670166015625
1760471335891813000,2.363813232421875,-1.0662078857421875,0.77783203125,-0.6602630615234375
1760471335901775000,2.373775146484375,-0.8758544921875,0.7562713623046875,-0.4762725830078125
1760471335911737000,2.383737060546875,-0.645751953125,0.7447357177734375,-0.3224029541015625
1760471335921700000,2.3937001953125,-0.5198516845703125,0.7418212890625,-0.184234619140625
1760471335931662000,2.403662109375,-0.520172119140625,0.743011474609375,-0.0355682373046875
1760471335941624000,2.4136240234375,-0.56817626953125,0.77386474609375,0.129669189453125
1760471335951586000,2.4235859375,-0.5952606201171875,0.7399749755859375,0.3321990966796875
1760471335961548000,2.433548095703125,-0.5765838623046875,0.7272186279296875,0.49755859375
1760471335971510300,2.44351025390625,-0.579437255859375,0.7501373291015625,0.6729888916015625
1760471335981473000,2.45347314453125,-0.6055450439453125,0.6897735595703125,0.8820648193359375
1760471335991435000,2.46343505859375,-0.6351470947265625,0.660247802734375,1.0294036865234375
1760471336001397200,2.473397216796875,-0.6920013427734375,0.6316070556640625,1.1207733154296875
1760471336011359000,2.48335888671875,-0.755462646484375,0.5609893798828125,1.1999053955078125
1760471336021321000,2.493321044921875,-0.79302978515625,0.495086669921875,1.2342681884765625
1760471336031283200,2.503283203125,-0.792449951171875,0.4699249267578125,1.1864776611328125
1760471336041245000,2.513244873046875,-0.761871337890625,0.447998046875,1.1259765625
1760471336051208000,2.5232080078125,-0.7166290283203125,0.4266204833984375,1.0648345947265625
1760471336061170200,2.533170166015625,-0.6614532470703125,0.41119384765625,1.002899169921875
1760471336071132200,2.543132080078125,-0.6190032958984375,0.404632568359375,0.9294891357421875
1760471336081094100,2.55309423828125,-0.607879638671875,0.41326904296875,0.8618316650390625
1760471336091056000,2.56305615234375,-0.619384765625,0.4232025146484375,0.8005523681640625
1760471336101017900,2.573017822265625,-0.6295318603515625,0.422119140625,0.7443695068359375
1760471336110980900,2.58298095703125,-0.63690185546875,0.4225616455078125,0.674560546875
1760471336120943000,2.592943115234375,-0.6381378173828125,0.42803955078125,0.590240478515625
1760471336130905000,2.602905029296875,-0.6644134521484375,0.4911956787109375,0.463226318359375
1760471336140867000,2.6128671875,-0.7107696533203125,0.51287841796875,0.35687255859375
1760471336150829000,2.6228291015625,-0.7417755126953125,0.47784423828125,0.18719482421875
1760471336160791000,2.632791015625,-0.7689361572265625,0.41485595703125,-0.105682373046875
1760471336170754000,2.642754150390625,-0.8336181640625,0.30328369140625,-0.501007080078125
1760471336180715800,2.6527158203125,-0.935028076171875,0.0670928955078125,-0.8937225341796875
1760471336190677800,2.662677734375,-1.025665283203125,-0.2333526611328125,-1.2619171142578125
1760471336200640000,2.672639892578125,-1.0991058349609375,-0.4985198974609375,-1.5710906982421875
1760471336210601700,2.682601806640625,-1.17742919921875,-0.7546844482421875,-1.68914794921875
1760471336220564000,2.69256396484375,-1.2443695068359375,-0.9337921142578125,-1.6639862060546875
1760471336230526000,2.70252587890625,-1.3170013427734375,-0.9683074951171875,-1.560211181640625
1760471336240489000,2.712489013671875,-1.3795166015625,-0.979400634765625,-1.44915771484375
1760471336250451000,2.722450927734375,-1.412139892578125,-0.9285888671875,-1.3476409912109375
1760471336260413000,2.732412841796875,-1.45001220703125,-0.8970794677734375,-1.3105010986328125
1760471336270375000,2.742375,-1.4662933349609375,-0.92626953125,-1.3358001708984375
1760471336280337000,2.7523369140625,-1.4474639892578125,-1.010498046875,-1.384124755859375
1760471336290299000,2.762298828125,-1.4146881103515625,-1.0989227294921875,-1.4476165771484375
1760471336300262000,2.772261962890625,-1.3754425048828125,-1.16192626953125,-1.453857421875
1760471336310224000,2.782223876953125,-1.309814453125,-1.1436767578125,-1.3792724609375
1760471336320185900,2.792185791015625,-1.23828125,-1.06048583984375,-1.2396392822265625
1760471336330148000,2.802148193359375,-1.1808624267578125,-0.941375732421875,-1.0761871337890625
1760471336340109800,2.81210986328125,-1.122100830078125,-0.8091888427734375,-0.9064483642578125
1760471336350071800,2.82207177734375,-1.058441162109375,-0.6937103271484375,-0.742431640625
1760471336360034800,2.832034912109375,-0.98992919921875,-0.6010284423828125,-0.612152099609375
1760471336369996800,2.841996826171875,-0.9172821044921875,-0.5370941162109375,-0.5312652587890625
1760471336379958800,2.851958740234375,-0.8568878173828125,-0.5032958984375,-0.4898529052734375
1760471336389921000,2.861921142578125,-0.81121826171875,-0.4891204833984375,-0.48443603515625
1760471336399882800,2.8718828125,-0.771331787109375,-0.4862213134765625,-0.4863739013671875
1760471336409845000,2.881844970703125,-0.7422332763671875,-0.483001708984375,-0.476104736328125
1760471336419807000,2.891806884765625,-0.7337646484375,-0.4814910888671875,-0.4583892822265625
1760471336429770000,2.90177001953125,-0.7375335693359375,-0.4755706787109375,-0.4368133544921875
1760471336439731700,2.911731689453125,-0.751312255859375,-0.45361328125,-0.3990936279296875
1760471336449694000,2.92169384765625,-0.7768096923828125,-0.4296875,-0.340423583984375
1760471336459656000,2.931656005859375,-0.798675537109375,-0.3941650390625,-0.285675048828125
1760471336469618000,2.941617919921875,-0.8202972412109375,-0.3638153076171875,-0.2390594482421875
1760471336479580000,2.951579833984375,-0.8393402099609375,-0.340087890625,-0.2111053466796875
1760471336489543000,2.96154296875,-0.839385986328125,-0.32293701171875,-0.1919097900390625
1760471336499505000,2.9715048828125,-0.825836181640625,-0.31390380859375,-0.180572509765625
1760471336509467000,2.981466796875,-0.80072021484375,-0.323211669921875,-0.188232421875
1760471336519428900,2.991428955078125,-0.7761077880859375,-0.351165771484375,-0.2406768798828125
1760471336529390800,3.001390869140625,-0.758453369140625,-0.4011688232421875,-0.317535400390625
1760471336539352800,3.011352783203125,-0.753662109375,-0.4489288330078125,-0.373321533203125
1760471336549315000,3.021315185546875,-0.7757415771484375,-0.4721221923828125,-0.39581298828125
1760471336559278000,3.031278076171875,-0.809478759765625,-0.46527099609375,-0.385589599609375
1760471336569239800,3.04123974609375,-0.8378448486328125,-0.448211669921875,-0.3517913818359375
1760471336579202000,3.0512021484375,-0.8556365966796875,-0.42633056640625,-0.3172607421875
1760471336589164000,3.0611640625,-0.860687255859375,-0.4037017822265625,-0.2899932861328125
1760471336599125800,3.071125732421875,-0.857025146484375,-0.3979339599609375,-0.287109375
1760471336609088000,3.081087890625,-0.8530120849609375,-0.4176483154296875,-0.3109588623046875
1760471336619051000,3.091051025390625,-0.8494720458984375,-0.451141357421875,-0.3541107177734375
1760471336629012700,3.1010126953125,-0.8550872802734375,-0.479095458984375,-0.3946075439453125
1760471336638975000,3.11097509765625,-0.865203857421875,-0.5019378662109375,-0.438812255859375
1760471336648937000,3.12093701171875,-0.87255859375,-0.5252532958984375,-0.4903564453125
1760471336658899000,3.13089892578125,-0.891448974609375,-0.5492706298828125,-0.5241241455078125
1760471336668861000,3.14086083984375,-0.931915283203125,-0.5688629150390625,-0.5340118408203125
1760471336678823000,3.150822998046875,-0.976043701171875,-0.5704803466796875,-0.515228271484375
1760471336688785700,3.16078564453125,-0.999725341796875,-0.5322723388671875,-0.4791259765625
1760471336698748000,3.170747802734375,-0.999969482421875,-0.479156494140625,-0.420166015625
1760471336708710000,3.1807099609375,-0.976043701171875,-0.43341064453125,-0.3623809814453125
1760471336718672000,3.190671875,-0.9380340576171875,-0.400360107421875,-0.33953857421875
1760471336728633900,3.2006337890625,-0.9059906005859375,-0.395538330078125,-0.3236083984375
1760471336738595800,3.210595947265625,-0.8798675537109375,-0.401947021484375,-0.31182861328125
1760471336748557800,3.220557861328125,-0.8638763427734375,-0.4003143310546875,-0.3184356689453125
1760471336758520800,3.230520751953125,-0.8595428466796875,-0.407012939453125,-0.3226776123046875
1760471336768482800,3.24048291015625,-0.85772705078125,-0.4110107421875,-0.3187713623046875
1760471336778445000,3.250445068359375,-0.860382080078125,-0.4026947021484375,-0.3093414306640625
1760471336788406800,3.26040673828125,-0.86407470703125,-0.4045257568359375,-0.3098907470703125
1760471336798369000,3.270369140625,-0.8735809326171875,-0.4116973876953125,-0.309051513671875
1760471336808331000,3.2803310546875,-0.88653564453125,-0.4175567626953125,-0.2975311279296875
1760471336818293800,3.290293701171875,-0.8871002197265625,-0.402923583984375,-0.294952392578125
1760471336828256000,3.300256103515625,-0.8772735595703125,-0.38177490234375,-0.2957000732421875
1760471336838218000,3.310218017578125,-0.86376953125,-0.374786376953125,-0.2992401123046875
1760471336848179700,3.3201796875,-0.845458984375,-0.384429931640625,-0.3023223876953125
1760471336858142000,3.330141845703125,-0.8405303955078125,-0.40594482421875,-0.3102874755859375
1760471336868104000,3.34010400390625,-0.846710205078125,-0.438751220703125,-0.3279876708984375
1760471336878066000,3.35006591796875,-0.850494384765625,-0.458831787109375,-0.3471527099609375
1760471336888029000,3.36002880859375,-0.8573455810546875,-0.46826171875,-0.3553314208984375
1760471336897991000,3.369990966796875,-0.857818603515625,-0.47357177734375,-0.37347412109375
1760471336907953000,3.379952880859375,-0.855682373046875,-0.4791412353515625,-0.39971923828125
1760471336917915000,3.389914794921875,-0.8603668212890625,-0.498291015625,-0.4148712158203125
1760471336927876900,3.399876953125,-0.878509521484375,-0.5296783447265625,-0.4295654296875
1760471336937838800,3.4098388671875,-0.91058349609375,-0.55340576171875,-0.4390716552734375
1760471336947800800,3.41980078125,-0.93328857421875,-0.5412750244140625,-0.427459716796875
1760471336957763800,3.429763916015625,-0.9341888427734375,-0.5103302001953125,-0.4027252197265625
1760471336967726000,3.43972607421875,-0.9166107177734375,-0.4889678955078125,-0.37603759765625
1760471336977687800,3.449687744140625,-0.8889617919921875,-0.481201171875,-0.356658935546875
1760471336987649800,3.45964990234375,-0.86370849609375,-0.4906005859375,-0.3646392822265625
1760471336997612000,3.469612060546875,-0.8488311767578125,-0.526275634765625,-0.3974456787109375
1760471337007573800,3.47957373046875,-0.8444976806640625,-0.5535125732421875,-0.420867919921875
1760471337017536000,3.489535888671875,-0.848052978515625,-0.548797607421875,-0.421295166015625
1760471337027499000,3.4994990234375,-0.8597412109375,-0.5374603271484375,-0.4174652099609375
1760471337037460700,3.509460693359375,-0.8748779296875,-0.530059814453125,-0.4178009033203125
1760471337047423000,3.519423095703125,-0.8878631591796875,-0.53302001953125,-0.4203033447265625
1760471337057385000,3.529385009765625,-0.901336669921875,-0.5464324951171875,-0.441009521484375
1760471337067346700,3.5393466796875,-0.9079132080078125,-0.5648040771484375,-0.457244873046875
1760471337077309000,3.549308837890625,-0.9032745361328125,-0.565277099609375,-0.437255859375
1760471337087272000,3.55927197265625,-0.8896331787109375,-0.554779052734375,-0.399383544921875
1760471337097234000,3.56923388671875,-0.864105224609375,-0.5380859375,-0.3597259521484375
1760471337107196000,3.57919580078125,-0.847564697265625,-0.5222625732421875,-0.3355560302734375
1760471337117158000,3.589157958984375,-0.839141845703125,-0.5316619873046875,-0.3476104736328125
1760471337127120100,3.5991201171875,-0.82476806640625,-0.54473876953125,-0.34100341796875
1760471337137081900,3.609081787109375,-0.7944183349609375,-0.531158447265625,-0.29461669921875
1760471337147043800,3.6190439453125,-0.7595062255859375,-0.5102386474609375,-0.229736328125
1760471337157007000,3.629007080078125,-0.7449951171875,-0.476654052734375,-0.1766510009765625
1760471337166968800,3.63896875,-0.7508544921875,-0.4407958984375,-0.1335906982421875
1760471337176935000,3.648934814453125,-0.7584686279296875,-0.415863037109375,-0.0915374755859375
1760471337186897000,3.65889697265625,-0.754180908203125,-0.4065399169921875,-0.0693511962890625
1760471337196859000,3.66885888671875,-0.7444305419921875,-0.4199981689453125,-0.066925048828125
1760471337206820900,3.67882080078125,-0.739776611328125,-0.449951171875,-0.081573486328125
1760471337216782800,3.688782958984375,-0.7420196533203125,-0.478179931640625,-0.0916290283203125
1760471337226745900,3.698745849609375,-0.753814697265625,-0.489349365234375,-0.091522216796875
1760471337236707800,3.708707763671875,-0.7649078369140625,-0.4847869873046875,-0.0805511474609375
1760471337246670000,3.718670166015625,-0.7678375244140625,-0.480438232421875,-0.0643310546875
1760471337256631800,3.7286318359375,-0.77020263671875,-0.4897613525390625,-0.080047607421875
1760471337266594000,3.738593994140625,-0.76666259765625,-0.505645751953125,-0.1038818359375
1760471337276556000,3.74855615234375,-0.7488250732421875,-0.5127410888671875,-0.10162353515625
1760471337286517800,3.758517822265625,-0.7375946044921875,-0.5071258544921875,-0.08746337890625
1760471337296480800,3.768480712890625,-0.734527587890625,-0.49835205078125,-0.0781402587890625
1760471337306443000,3.778443115234375,-0.727935791015625,-0.491363525390625,-0.0720672607421875
1760471337316404700,3.78840478515625,-0.717681884765625,-0.4837493896484375,-0.0558319091796875
1760471337326367000,3.798366943359375,-0.70941162109375,-0.48553466796875,-0.049560546875
1760471337336329000,3.808328857421875,-0.714813232421875,-0.494720458984375,-0.0687713623046875
1760471337346291000,3.818291015625,-0.724639892578125,-0.5166473388671875,-0.092559814453125
1760471337356253000,3.8282529296875,-0.73114013671875,-0.5480804443359375,-0.120391845703125
1760471337366216000,3.8382158203125,-0.7340850830078125,-0.5741729736328125,-0.1484222412109375
1760471337376177700,3.848177734375,-0.732940673828125,-0.5850830078125,-0.16705322265625
1760471337386140000,3.858139892578125,-0.73309326171875,-0.586395263671875,-0.168243408203125
1760471337396102000,3.868101806640625,-0.7337646484375,-0.5840606689453125,-0.1638946533203125
1760471337406063900,3.87806396484375,-0.72998046875,-0.58966064453125,-0.175079345703125
1760471337416025900,3.88802587890625,-0.719512939453125,-0.6021575927734375,-0.1945648193359375
1760471337425987800,3.89798779296875,-0.7111053466796875,-0.61053466796875,-0.2062835693359375
1760471337435951000,3.907951171875,-0.7089080810546875,-0.6154632568359375,-0.2164459228515625
1760471337445912800,3.917912841796875,-0.7157745361328125,-0.61602783203125,-0.21588134765625
1760471337455874800,3.927874755859375,-0.7209625244140625,-0.61395263671875,-0.2092742919921875
1760471337465837000,3.937837158203125,-0.722869873046875,-0.6064300537109375,-0.204559326171875
1760471337475798800,3.947798828125,-0.7147674560546875,-0.603607177734375,-0.20660400390625
1760471337485761000,3.957760986328125,-0.70245361328125,-0.605224609375,-0.20928955078125
1760471337495723000,3.967722900390625,-0.6887359619140625,-0.604949951171875,-0.2071380615234375
1760471337505685800,3.977685791015625,-0.6822967529296875,-0.597381591796875,-0.20318603515625
1760471337515648000,3.98764794921875,-0.68402099609375,-0.5921173095703125,-0.201416015625
1760471337525610000,3.99760986328125,-0.689910888671875,-0.5873260498046875,-0.196624755859375
1760471337535571700,4.00757177734375,-0.6980133056640625,-0.5754547119140625,-0.185760498046875
1760471337545534000,4.017533935546875,-0.7035675048828125,-0.5662841796875,-0.1830902099609375
1760471337555496000,4.027495849609375,-0.706512451171875,-0.55755615234375,-0.178070068359375
1760471337565458000,4.0374580078125,-0.7129974365234375,-0.550933837890625,-0.168853759765625
1760471337575421000,4.0474208984375,-0.7166290283203125,-0.5392913818359375,-0.1619110107421875
1760471337585383000,4.0573828125,-0.7097930908203125,-0.527923583984375,-0.153564453125
1760471337595345000,4.067344970703125,-0.701080322265625,-0.5295867919921875,-0.149261474609375
1760471337605307000,4.077306884765625,-0.6978607177734375,-0.539520263671875,-0.1520538330078125
1760471337615268900,4.087268798828125,-0.704559326171875,-0.5458831787109375,-0.169158935546875
1760471337625230800,4.09723095703125,-0.7154693603515625,-0.5487060546875,-0.1924285888671875
1760471337635192800,4.10719287109375,-0.7259979248046875,-0.551666259765625,-0.2024993896484375
1760471337645155800,4.11715576171875,-0.73590087890625,-0.5535430908203125,-0.2140045166015625
1760471337655118000,4.1271181640625,-0.74835205078125,-0.554534912109375,-0.22943115234375
1760471337665079800,4.137079833984375,-0.759246826171875,-0.558258056640625,-0.2356414794921875
1760471337675041800,4.147041748046875,-0.76287841796875,-0.5588531494140625,-0.2442474365234375
1760471337685004000,4.157004150390625,-0.76080322265625,-0.5592041015625,-0.2561492919921875
1760471337694965800,4.1669658203125,-0.7596588134765625,-0.559844970703125,-0.2593841552734375
1760471337704928000,4.176927978515625,-0.759674072265625,-0.5576934814453125,-0.260711669921875
1760471337714891000,4.18689111328125,-0.765869140625,-0.5587158203125,-0.27569580078125
1760471337724852700,4.196852783203125,-0.778564453125,-0.5640411376953125,-0.287261962890625
1760471337734815000,4.20681494140625,-0.7899322509765625,-0.5613250732421875,-0.2931671142578125
1760471337744777000,4.21677685546875,-0.7983551025390625,-0.5587158203125,-0.2918548583984375
1760471337754738700,4.22673876953125,-0.7995147705078125,-0.5498046875,-0.292816162109375
1760471337764701000,4.236700927734375,-0.799072265625,-0.537933349609375,-0.2968597412109375
1760471337774663000,4.246662841796875,-0.7960357666015625,-0.53717041015625,-0.30694580078125
1760471337784626000,4.2566259765625,-0.7980194091796875,-0.544677734375,-0.320892333984375
1760471337794588000,4.266587890625,-0.8054046630859375,-0.5565643310546875,-0.3382415771484375
1760471337804550000,4.2765498046875,-0.8134613037109375,-0.564208984375,-0.3629608154296875
1760471337814512000,4.28651220703125,-0.818206787109375,-0.562591552734375,-0.3710479736328125
1760471337824473900,4.296473876953125,-0.8235015869140625,-0.5531158447265625,-0.367919921875
1760471337834435800,4.306435791015625,-0.8174896240234375,-0.534210205078125,-0.3604278564453125
1760471337844397800,4.316397705078125,-0.80548095703125,-0.5096893310546875,-0.3440093994140625
1760471337854360800,4.32636083984375,-0.7914276123046875,-0.486480712890625,-0.336181640625
1760471337864322800,4.33632275390625,-0.7880859375,-0.4786834716796875,-0.3333587646484375
1760471337874285000,4.34628515625,-0.794891357421875,-0.4846038818359375,-0.322906494140625
1760471337884246800,4.356246826171875,-0.800994873046875,-0.4662628173828125,-0.326690673828125
1760471337894209000,4.366208984375,-0.80731201171875,-0.4422607421875,-0.3359527587890625
1760471337904171000,4.3761708984375,-0.8096160888671875,-0.429107666015625,-0.3177642822265625
1760471337914132700,4.3861328125,-0.8067474365234375,-0.4105682373046875,-0.3129730224609375
1760471337924095700,4.396095703125,-0.8037109375,-0.4016571044921875,-0.3201141357421875
1760471337934058000,4.40605810546875,-0.80108642578125,-0.3974609375,-0.328277587890625
1760471337944019700,4.416019775390625,-0.812255859375,-0.401947021484375,-0.3541717529296875
1760471337953982000,4.42598193359375,-0.828643798828125,-0.4163360595703125,-0.394378662109375
1760471337963944000,4.43594384765625,-0.84197998046875,-0.4216461181640625,-0.419677734375
1760471337973906000,4.445906005859375,-0.84918212890625,-0.401214599609375,-0.421051025390625
1760471337983868000,4.455867919921875,-0.85784912109375,-0.3795623779296875,-0.38909912109375
1760471337993830000,4.465829833984375,-0.8746490478515625,-0.3543243408203125,-0.3413848876953125
1760471338003793000,4.47579296875,-0.885223388671875,-0.3070831298828125,-0.29803466796875
1760471338013755000,4.4857548828125,-0.8888092041015625,-0.2631683349609375,-0.288543701171875
1760471338023716900,4.495716796875,-0.90045166015625,-0.247406005859375,-0.3193817138671875
1760471338033679000,4.50567919921875,-0.9236602783203125,-0.2667236328125,-0.3731842041015625
1760471338043640800,4.515640869140625,-0.9487152099609375,-0.3151397705078125,-0.4423065185546875
1760471338053602800,4.525602783203125,-0.9693145751953125,-0.3624420166015625,-0.5171051025390625
1760471338063565000,4.53556494140625,-0.9882659912109375,-0.406951904296875,-0.5820159912109375
1760471338073527800,4.54552783203125,-0.9969329833984375,-0.446319580078125,-0.623809814453125
1760471338083489800,4.55548974609375,-0.9920196533203125,-0.46575927734375,-0.6436614990234375
1760471338093452000,4.5654521484375,-0.9694976806640625,-0.4618072509765625,-0.645050048828125
1760471338103413800,4.575413818359375,-0.949615478515625,-0.4471282958984375,-0.626861572265625
1760471338113376000,4.5853759765625,-0.9449615478515625,-0.43505859375,-0.6050872802734375
1760471338123338000,4.595337890625,-0.955230712890625,-0.4199676513671875,-0.592864990234375
1760471338133299700,4.6052998046875,-0.978668212890625,-0.4110107421875,-0.58233642578125
1760471338143263000,4.615262939453125,-1.0041351318359375,-0.411651611328125,-0.5881500244140625
1760471338153225000,4.625224853515625,-1.023284912109375,-0.412261962890625,-0.603057861328125
1760471338163186700,4.635186767578125,-1.030242919921875,-0.414886474609375,-0.6139678955078125
1760471338173149000,4.64514892578125,-1.018646240234375,-0.4170074462890625,-0.6109161376953125
1760471338183107000,4.655107177734375,-0.98968505859375,-0.41510009765625,-0.5975189208984375
1760471338193069300,4.6650693359375,-0.9564361572265625,-0.4052734375,-0.5822296142578125
1760471338203031000,4.675031005859375,-0.9250335693359375,-0.39105224609375,-0.56512451171875
1760471338212993000,4.684992919921875,-0.9029998779296875,-0.3763580322265625,-0.5435791015625
1760471338222956300,4.694956298828125,-0.8927001953125,-0.3639678955078125,-0.5208587646484375
1760471338232918300,4.704918212890625,-0.89666748046875,-0.3584747314453125,-0.4973907470703125
1760471338242880000,4.7148798828125,-0.9141693115234375,-0.349456787109375,-0.4812164306640625
1760471338252842200,4.72484228515625,-0.9316864013671875,-0.3340606689453125,-0.47100830078125
1760471338262804200,4.73480419921875,-0.9452056884765625,-0.3277435302734375,-0.456634521484375
1760471338272766200,4.74476611328125,-0.9528656005859375,-0.328033447265625,-0.4446563720703125
1760471338282728200,4.754728271484375,-0.9487762451171875,-0.328125,-0.44403076171875
1760471338292690000,4.76468994140625,-0.944244384765625,-0.3296966552734375,-0.4499359130859375
1760471338302653200,4.774653076171875,-0.9403533935546875,-0.3402099609375,-0.4515380859375
1760471338312615200,4.784615234375,-0.9313201904296875,-0.355133056640625,-0.4567718505859375
1760471338322577200,4.7945771484375,-0.9234619140625,-0.36346435546875,-0.4666290283203125
1760471338332539100,4.8045390625,-0.9255523681640625,-0.3773345947265625,-0.477783203125
1760471338342501000,4.814501220703125,-0.93035888671875,-0.3948822021484375,-0.4921112060546875
1760471338352463400,4.82446337890625,-0.941162109375,-0.42095947265625,-0.521881103515625
1760471338362425000,4.834425048828125,-0.9597625732421875,-0.4532318115234375,-0.5672760009765625
1760471338372388000,4.84438818359375,-0.979461669921875,-0.4933624267578125,-0.6249237060546875
1760471338382350000,4.85435009765625,-0.9931182861328125,-0.5234527587890625,-0.683685302734375
1760471338392312000,4.86431201171875,-0.989593505859375,-0.5452880859375,-0.707672119140625
1760471338402274000,4.874274169921875,-0.9693145751953125,-0.5545196533203125,-0.703125
1760471338412236300,4.884236328125,-0.9602813720703125,-0.5709075927734375,-0.70880126953125
1760471338422198000,4.894197998046875,-0.9704742431640625,-0.605712890625,-0.7291412353515625
1760471338432160300,4.90416015625,-0.9825592041015625,-0.6366119384765625,-0.741363525390625
1760471338442122200,4.914122314453125,-0.9987335205078125,-0.663848876953125,-0.7825775146484375
1760471338452085200,4.924085205078125,-1.0184326171875,-0.6912841796875,-0.8391876220703125
1760471338462047000,4.934046875,-1.01806640625,-0.699676513671875,-0.879730224609375
1760471338472009200,4.94400927734375,-0.98846435546875,-0.700653076171875,-0.907989501953125
1760471338481971200,4.95397119140625,-0.9263916015625,-0.6671295166015625,-0.900390625
1760471338491933200,4.96393310546875,-0.8402252197265625,-0.6009521484375,-0.811767578125
1760471338501895200,4.973895263671875,-0.7904052734375,-0.5363311767578125,-0.652801513671875
1760471338511857200,4.983857177734375,-0.7384796142578125,-0.4574127197265625,-0.532501220703125
1760471338521819100,4.993819091796875,-0.696258544921875,-0.3543548583984375,-0.3587799072265625
1760471338531782100,5.0037822265625,-0.699371337890625,-0.2919921875,-0.17681884765625
1760471338541744000,5.013744140625,-0.7370758056640625,-0.221160888671875,-0.0522613525390625
1760471338551706000,5.0237060546875,-0.786590576171875,-0.1606292724609375,0.0692596435546875
1760471338561668000,5.033668212890625,-0.81768798828125,-0.1116180419921875,0.2105255126953125
1760471338571630300,5.04363037109375,-0.8118133544921875,-0.0802001953125,0.32855224609375
1760471338581592000,5.053592041015625,-0.772979736328125,-0.0610198974609375,0.424072265625
1760471338591554000,5.063553955078125,-0.7331695556640625,-0.0569915771484375,0.4779205322265625
1760471338601516300,5.073516357421875,-0.679412841796875,-0.0663909912109375,0.453643798828125
1760471338611479000,5.08347900390625,-0.616607666015625,-0.0958404541015625,0.426788330078125
1760471338621441000,5.09344091796875,-0.57086181640625,-0.14501953125,0.4419708251953125
1760471338631403300,5.1034033203125,-0.5472869873046875,-0.1702880859375,0.441619873046875
1760471338641365000,5.113364990234375,-0.5434722900390625,-0.173370361328125,0.446807861328125
1760471338651327200,5.1233271484375,-0.571197509765625,-0.18597412109375,0.46246337890625
1760471338661289200,5.133289306640625,-0.60894775390625,-0.1968994140625,0.4638671875
1760471338671251000,5.1432509765625,-0.64129638671875,-0.2041168212890625,0.458648681640625
1760471338681213200,5.153213134765625,-0.6649932861328125,-0.2243804931640625,0.4244232177734375
1760471338691176200,5.16317626953125,-0.670654296875,-0.2720489501953125,0.33221435546875
1760471338701138200,5.17313818359375,-0.6555633544921875,-0.32672119140625,0.24127197265625
1760471338711100200,5.18310009765625,-0.6223907470703125,-0.3764495849609375,0.19439697265625
1760471338721062100,5.193062255859375,-0.5900115966796875,-0.425048828125,0.1536407470703125
1760471338731024400,5.2030244140625,-0.5694580078125,-0.4690093994140625,0.0717620849609375
1760471338740986000,5.212986083984375,-0.5652923583984375,-0.520294189453125,-0.0310516357421875
1760471338750948000,5.222947998046875,-0.5731658935546875,-0.5758056640625,-0.1376800537109375
1760471338760911000,5.2329111328125,-0.5846710205078125,-0.6245574951171875,-0.2282562255859375
1760471338770873000,5.242873046875,-0.6125030517578125,-0.6502227783203125,-0.2665252685546875
1760471338780835000,5.2528349609375,-0.6212005615234375,-0.6736907958984375,-0.3127899169921875
1760471338790797300,5.26279736328125,-0.616180419921875,-0.702972412109375,-0.2967681884765625
1760471338800759000,5.272759033203125,-0.6305999755859375,-0.7249908447265625,-0.2650604248046875
1760471338810721300,5.28272119140625,-0.6528778076171875,-0.7088623046875,-0.25665283203125
1760471338820683300,5.292683349609375,-0.68780517578125,-0.69073486328125,-0.2410430908203125
1760471338830645000,5.30264501953125,-0.7277679443359375,-0.6685333251953125,-0.218414306640625
1760471338840608000,5.31260791015625,-0.7503814697265625,-0.6463470458984375,-0.2170257568359375
1760471338850570200,5.3225703125,-0.746185302734375,-0.6367645263671875,-0.218658447265625
1760471338860532000,5.332531982421875,-0.72052001953125,-0.6284027099609375,-0.2183380126953125
1760471338870494200,5.342494140625,-0.6932525634765625,-0.618804931640625,-0.23333740234375
1760471338880456200,5.352456298828125,-0.6827545166015625,-0.6215057373046875,-0.26007080078125
1760471338890418200,5.362418212890625,-0.685211181640625,-0.624267578125,-0.2870330810546875
1760471338900380200,5.372380126953125,-0.69586181640625,-0.61114501953125,-0.2965087890625
1760471338910342100,5.382342041015625,-0.71173095703125,-0.581573486328125,-0.2854461669921875
1760471338920305200,5.39230517578125,-0.727691650390625,-0.5444183349609375,-0.25665283203125
1760471338930267100,5.40226708984375,-0.7477264404296875,-0.5186767578125,-0.228759765625
1760471338940229000,5.41222900390625,-0.7653656005859375,-0.501861572265625,-0.2208404541015625
1760471338950191400,5.42219140625,-0.7758941650390625,-0.47637939453125,-0.2336273193359375
1760471338960153000,5.432153076171875,-0.791015625,-0.45721435546875,-0.2535400390625
1760471338970115000,5.442114990234375,-0.8073577880859375,-0.4595794677734375,-0.293060302734375
1760471338980077300,5.452077392578125,-0.811279296875,-0.45343017578125,-0.328094482421875
1760471338990039000,5.4620390625,-0.8166656494140625,-0.4524688720703125,-0.339019775390625
1760471339000002000,5.472001953125,-0.82171630859375,-0.4422149658203125,-0.3250579833984375
1760471339009964300,5.48196435546875,-0.8246307373046875,-0.4074859619140625,-0.29840087890625
1760471339019926000,5.491926025390625,-0.8247833251953125,-0.3591461181640625,-0.2658843994140625
1760471339029888300,5.50188818359375,-0.8166046142578125,-0.2837982177734375,-0.2240142822265625
1760471339039850200,5.511850341796875,-0.8151397705078125,-0.2016143798828125,-0.1878662109375
1760471339049812000,5.52181201171875,-0.8384857177734375,-0.1484222412109375,-0.182952880859375
1760471339059774200,5.531774169921875,-0.92022705078125,-0.1371002197265625,-0.3115997314453125
1760471339069736200,5.541736083984375,-1.037445068359375,-0.2039794921875,-0.5660400390625
1760471339079699000,5.551698974609375,-1.107879638671875,-0.30755615234375,-0.77911376953125
1760471339089661200,5.5616611328125,-1.1239166259765625,-0.406402587890625,-0.8995208740234375
1760471339099623200,5.571623046875,-1.0967559814453125,-0.46905517578125,-0.9109039306640625
1760471339109585200,5.581585205078125,-1.04461669921875,-0.5019989013671875,-0.860198974609375
1760471339119547100,5.591547119140625,-0.991485595703125,-0.5064239501953125,-0.811004638671875
1760471339129509000,5.601509033203125,-0.972564697265625,-0.502349853515625,-0.825408935546875
1760471339139471000,5.61147119140625,-1.010986328125,-0.5181884765625,-0.8946380615234375
1760471339149434000,5.62143408203125,-1.07177734375,-0.5582733154296875,-0.9692230224609375
1760471339159396000,5.63139599609375,-1.118804931640625,-0.5972442626953125,-1.0539093017578125
1760471339169358300,5.6413583984375,-1.1450653076171875,-0.6296844482421875,-1.1116180419921875
1760471339179320300,5.6513203125,-1.157562255859375,-0.6818695068359375,-1.1434478759765625
1760471339189282300,5.6612822265625,-1.1662445068359375,-0.7230987548828125,-1.1623687744140625
1760471339199244300,5.671244384765625,-1.1739959716796875,-0.7446746826171875,-1.1884002685546875
1760471339209206300,5.681206298828125,-1.19818115234375,-0.7498016357421875,-1.22528076171875
1760471339219168300,5.691168212890625,-1.248016357421875,-0.7474212646484375,-1.2640380859375
1760471339229131300,5.70113134765625,-1.3173828125,-0.7625732421875,-1.327789306640625
1760471339239093200,5.71109326171875,-1.405609130859375,-0.8043670654296875,-1.4161834716796875
1760471339249055500,5.721055419921875,-1.48968505859375,-0.845855712890625,-1.5222625732421875
1760471339259017200,5.731017333984375,-1.5489044189453125,-0.852996826171875,-1.6107177734375
1760471339268979200,5.740979248046875,-1.571380615234375,-0.82659912109375,-1.659942626953125
1760471339278941400,5.75094140625,-1.5765228271484375,-0.775543212890625,-1.677001953125
1760471339288903200,5.760903076171875,-1.557281494140625,-0.715789794921875,-1.6671905517578125
1760471339298865400,5.770865478515625,-1.5069122314453125,-0.63916015625,-1.6300201416015625
1760471339308828400,5.780828369140625,-1.4316253662109375,-0.542236328125,-1.5628814697265625
1760471339318790100,5.7907900390625,-1.3284149169921875,-0.425262451171875,-1.4712982177734375
1760471339328752400,5.80075244140625,-1.2171173095703125,-0.2932586669921875,-1.3644256591796875
1760471339338714400,5.81071435546875,-1.1196441650390625,-0.166290283203125,-1.27142333984375
1760471339348676000,5.820676025390625,-1.023468017578125,-0.0570220947265625,-1.1553192138671875
1760471339358638300,5.830638427734375,-0.9330596923828125,0.04742431640625,-0.9956512451171875
1760471339368600300,5.840600341796875,-0.8693084716796875,0.1444549560546875,-0.83062744140625
1760471339378562300,5.850562255859375,-0.7946929931640625,0.241455078125,-0.71173095703125
1760471339388525300,5.860525390625,-0.73358154296875,0.303192138671875,-0.5938568115234375
1760471339398487300,5.8704873046875,-0.718109130859375,0.3672943115234375,-0.4586334228515625
1760471339408449300,5.88044921875,-0.7361907958984375,0.4306793212890625,-0.2959136962890625
1760471339418411300,5.890411376953125,-0.7740020751953125,0.4950714111328125,-0.13470458984375
1760471339428373200,5.900373291015625,-0.8022308349609375,0.553436279296875,0.0717620849609375
1760471339438335200,5.910335205078125,-0.7994842529296875,0.5880279541015625,0.2884063720703125
1760471339448297200,5.920297119140625,-0.766204833984375,0.6227569580078125,0.47283935546875
1760471339458259500,5.930259521484375,-0.7142486572265625,0.64324951171875,0.6562957763671875
1760471339468222500,5.940222412109375,-0.6576690673828125,0.647705078125,0.816680908203125
1760471339478184200,5.95018408203125,-0.622161865234375,0.6361083984375,0.9515533447265625
1760471339488146400,5.960146484375,-0.6013641357421875,0.609954833984375,1.058319091796875
1760471339498108400,5.9701083984375,-0.595550537109375,0.592010498046875,1.1161956787109375
1760471339508070100,5.980070068359375,-0.627410888671875,0.579681396484375,1.1522064208984375
1760471339518032400,5.990032470703125,-0.699981689453125,0.556396484375,1.190948486328125
1760471339527994400,5.999994384765625,-0.788726806640625,0.53460693359375,1.1964263916015625
1760471339537956400,6.009956298828125,-0.86065673828125,0.5052947998046875,1.1723480224609375
1760471339547919400,6.01991943359375,-0.88543701171875,0.4769134521484375,1.1313934326171875
1760471339557881300,6.02988134765625,-0.859954833984375,0.464752197265625,1.058319091796875
1760471339567843000,6.039843017578125,-0.8207855224609375,0.4606170654296875,0.9456939697265625
1760471339577805300,6.049805419921875,-0.7866363525390625,0.444671630859375,0.8282318115234375
1760471339587767300,6.059767333984375,-0.7628021240234375,0.4295196533203125,0.7162933349609375
1760471339597729300,6.069729248046875,-0.74029541015625,0.4078521728515625,0.5792999267578125
1760471339607691300,6.079691162109375,-0.718048095703125,0.37860107421875,0.40826416015625
1760471339617654300,6.089654296875,-0.7017822265625,0.3530426025390625,0.268218994140625
1760471339627616300,6.0996162109375,-0.6905975341796875,0.3516693115234375,0.162841796875
1760471339637578200,6.109578125,-0.6986083984375,0.378997802734375,0.0554351806640625
1760471339647540200,6.119540283203125,-0.73590087890625,0.3969268798828125,-0.0970306396484375
1760471339657502200,6.129502197265625,-0.77130126953125,0.3919525146484375,-0.305816650390625
1760471339667464200,6.139464111328125,-0.8201141357421875,0.3988800048828125,-0.4813690185546875
1760471339677426400,6.149426513671875,-0.891204833984375,0.3507080078125,-0.6201019287109375
1760471339687388200,6.15938818359375,-0.978179931640625,0.279693603515625,-0.8167266845703125
1760471339697350100,6.16935009765625,-1.0472412109375,0.233428955078125,-1.0494537353515625
1760471339707313400,6.1793134765625,-1.090545654296875,0.176788330078125,-1.2533721923828125
1760471339717275400,6.189275390625,-1.098907470703125,0.1134033203125,-1.3812713623046875
1760471339727237000,6.199237060546875,-1.080841064453125,0.02996826171875,-1.4757843017578125
1760471339737199400,6.209199462890625,-1.0424652099609375,-0.0501556396484375,-1.4963531494140625
1760471339747161300,6.219161376953125,-1.0025482177734375,-0.1103668212890625,-1.44219970703125
1760471339757123300,6.229123291015625,-1.0083770751953125,-0.119842529296875,-1.407623291015625
1760471339767085300,6.239085205078125,-1.077117919921875,-0.109222412109375,-1.4476470947265625
1760471339777047000,6.249047119140625,-1.2008819580078125,-0.15838623046875,-1.5411529541015625
1760471339787010300,6.25901025390625,-1.3795623779296875,-0.2745361328125,-1.6734161376953125
1760471339796972300,6.26897216796875,-1.589599609375,-0.4246063232421875,-1.8186187744140625
1760471339806934300,6.278934326171875,-1.790771484375,-0.5316619873046875,-1.976654052734375
1760471339816896300,6.288896240234375,-1.9329681396484375,-0.5993499755859375,-2.096649169921875
1760471339896593400,6.368593505859375,-1.882843017578125,-0.63592529296875,-1.9077301025390625
1760471339906555100,6.37855517578125,-1.7960205078125,-0.4904327392578125,-1.7721099853515625
1760471339916517400,6.388517333984375,-1.7272186279296875,-0.3758087158203125,-1.6792449951171875
1760471339926479400,6.398479248046875,-1.6874542236328125,-0.3080902099609375,-1.635406494140625
1760471339936441000,6.408441162109375,-1.62921142578125,-0.26068115234375,-1.58209228515625
1760471339946404000,6.418404052734375,-1.5343780517578125,-0.2017364501953125,-1.520172119140625
1760471339956366300,6.428366455078125,-1.42193603515625,-0.1275787353515625,-1.4606475830078125
1760471339966328300,6.438328369140625,-1.336669921875,-0.06085205078125,-1.41302490234375
1760471339976290300,6.448290283203125,-1.2599029541015625,0.0054473876953125,-1.3686065673828125
1760471339986252300,6.458252197265625,-1.166595458984375,0.099212646484375,-1.302734375
1760471339996214300,6.46821435546875,-1.07861328125,0.1807861328125,-1.2123565673828125
1760471340006176300,6.47817626953125,-1.0308990478515625,0.2527008056640625,-1.1122894287109375
1760471340016138200,6.48813818359375,-1.0123138427734375,0.3036956787109375,-1.0150146484375
1760471340026101200,6.498101318359375,-0.9729156494140625,0.3506011962890625,-0.89306640625
1760471340036063200,6.508063232421875,-0.91363525390625,0.3934173583984375,-0.7451324462890625
1760471340046025200,6.518025146484375,-0.8572235107421875,0.434967041015625,-0.605224609375
1760471340055987500,6.527987548828125,-0.825927734375,0.4617462158203125,-0.4811248779296875
1760471340065949200,6.53794921875,-0.8058319091796875,0.477569580078125,-0.339019775390625
1760471340075911200,6.5479111328125,-0.7823028564453125,0.49847412109375,-0.1477813720703125
1760471340085873400,6.557873291015625,-0.75067138671875,0.504180908203125,0.0745697021484375
1760471340095835100,6.567835205078125,-0.689178466796875,0.5189361572265625,0.2693023681640625
1760471340105797400,6.57779736328125,-0.615631103515625,0.5038604736328125,0.42596435546875
1760471340115760400,6.587760498046875,-0.585052490234375,0.47540283203125,0.5395965576171875
1760471340125722000,6.59772216796875,-0.5929107666015625,0.468475341796875,0.6221923828125
1760471340135684400,6.607684326171875,-0.6191253662109375,0.4547271728515625,0.709381103515625
1760471340145646300,6.617646240234375,-0.6378326416015625,0.40728759765625,0.829010009765625
1760471340155608000,6.627608154296875,-0.653839111328125,0.372802734375,0.935028076171875
1760471340165570300,6.6375703125,-0.673553466796875,0.345428466796875,1.0149383544921875
1760471340175532300,6.6475322265625,-0.6866912841796875,0.3101043701171875,1.0782928466796875
1760471340185493500,6.657493408203125,-0.694610595703125,0.30328369140625,1.084014892578125
1760471340195456500,6.66745654296875,-0.705902099609375,0.298095703125,1.0557403564453125
1760471340205418500,6.67741845703125,-0.71044921875,0.2864532470703125,1.047271728515625
1760471340215380500,6.68738037109375,-0.7167816162109375,0.2940216064453125,1.03228759765625
1760471340225342500,6.697342529296875,-0.7197723388671875,0.2991943359375,1.002288818359375
1760471340235304700,6.7073046875,-0.7052459716796875,0.284271240234375,0.9515838623046875
1760471340245266400,6.717266357421875,-0.684417724609375,0.2666168212890625,0.8846588134765625
1760471340255228400,6.727228515625,-0.68145751953125,0.280548095703125,0.8003997802734375
1760471340265190700,6.737190673828125,-0.6895751953125,0.3059539794921875,0.7118072509765625
1760471340275153700,6.747153564453125,-0.7001953125,0.3205718994140625,0.611541748046875
1760471340285115400,6.757115478515625,-0.7025604248046875,0.34356689453125,0.46893310546875
1760471340295077600,6.76707763671875,-0.7128448486328125,0.3757476806640625,0.3055877685546875
1760471340305039600,6.77703955078125,-0.7442169189453125,0.389251708984375,0.142425537109375
1760471340315001600,6.787001708984375,-0.7869415283203125,0.395965576171875,-0.029998779296875
1760471340324963600,6.796963623046875,-0.8299560546875,0.405242919921875,-0.2448883056640625
1760471340334925300,6.80692529296875,-0.86602783203125,0.4214019775390625,-0.489837646484375
1760471340344887600,6.816887451171875,-0.9184722900390625,0.4288482666015625,-0.7282867431640625
1760471340354849500,6.826849609375,-0.9644317626953125,0.3406524658203125,-0.8908538818359375
1760471340364812500,6.8368125,-0.9774627685546875,0.2721405029296875,-1.009796142578125
1760471340374774500,6.8467744140625,-0.9784698486328125,0.2302093505859375,-1.1269989013671875
1760471340384736500,6.856736572265625,-1.01947021484375,0.1772308349609375,-1.2397613525390625
1760471340394698500,6.866698486328125,-1.1190338134765625,0.14593505859375,-1.3649444580078125
1760471340404660500,6.876660400390625,-1.23541259765625,0.1107940673828125,-1.4764556884765625
1760471340414622500,6.88662255859375,-1.35211181640625,0.0721282958984375,-1.519989013671875
1760471340424584700,6.896584716796875,-1.430694580078125,-0.048431396484375,-1.496307373046875
1760471340434546400,6.90654638671875,-1.40655517578125,-0.1005096435546875,-1.4540863037109375
1760471340444509400,6.916509521484375,-1.3404388427734375,-0.074432373046875,-1.3669281005859375
1760471340454471700,6.9264716796875,-1.287750244140625,-0.028045654296875,-1.2650909423828125
1760471340464433400,6.936433349609375,-1.2735137939453125,0.026397705078125,-1.1915435791015625
1760471340474395400,6.9463955078125,-1.27880859375,0.0700836181640625,-1.105255126953125
1760471340484357600,6.956357666015625,-1.285858154296875,0.140380859375,-1.0675811767578125
1760471340494319400,6.9663193359375,-1.281951904296875,0.2114105224609375,-1.062347412109375
1760471340504281600,6.976281494140625,-1.2718963623046875,0.2260894775390625,-1.1326141357421875
1760471340514243600,6.98624365234375,-1.285064697265625,0.1610870361328125,-1.3492889404296875
1760471340524205600,6.99620556640625,-1.308258056640625,0.0088043212890625,-1.6121826171875
1760471340534168600,7.00616845703125,-1.32025146484375,-0.157562255859375,-1.869476318359375
1760471340544130600,7.016130615234375,-1.3263397216796875,-0.2988433837890625,-2.048736572265625
1760471340554092300,7.02609228515625,-1.341278076171875,-0.378814697265625,-2.1432342529296875
1760471340682354400,7.1543544921875,-1.1675262451171875,-0.1177978515625,-1.8394317626953125
1760471340692316400,7.16431640625,-1.1895599365234375,-0.0559539794921875,-1.7200469970703125
1760471340702278700,7.174278564453125,-1.192352294921875,-0.0116729736328125,-1.606109619140625
1760471340712241400,7.184241455078125,-1.2039642333984375,0.016754150390625,-1.5280609130859375
1760471340722203400,7.194203369140625,-1.195770263671875,0.082763671875,-1.49713134765625
1760471340732165600,7.20416552734375,-1.1536102294921875,0.17742919921875,-1.421630859375
1760471340742127400,7.21412744140625,-1.1002044677734375,0.297119140625,-1.27935791015625
1760471340752089600,7.224089599609375,-1.0594482421875,0.4415283203125,-1.094390869140625
1760471340762051600,7.234051513671875,-1.050811767578125,0.5351715087890625,-0.8552093505859375
1760471340772013300,7.244013427734375,-1.05303955078125,0.6383819580078125,-0.6515045166015625
1760471340781975600,7.2539755859375,-0.983306884765625,0.6982879638671875,-0.419281005859375
1760471340791937500,7.2639375,-0.8985748291015625,0.6317291259765625,-0.173614501953125
1760471340801900500,7.273900634765625,-0.875732421875,0.5372161865234375,-0.0673675537109375
1760471340811862500,7.283862548828125,-0.914398193359375,0.4501495361328125,-0.0318145751953125
1760471340821824500,7.293824462890625,-0.9571380615234375,0.3781280517578125,0.0361328125
1760471340831786800,7.303786865234375,-0.9020843505859375,0.3721160888671875,0.1468658447265625
1760471340841748500,7.31374853515625,-0.7508392333984375,0.41497802734375,0.27105712890625
1760471340851710500,7.32371044921875,-0.58251953125,0.4553070068359375,0.3898162841796875
1760471340861672700,7.333672607421875,-0.453521728515625,0.5022735595703125,0.526031494140625
1760471340871634400,7.343634521484375,-0.4101104736328125,0.535064697265625,0.6661224365234375
1760471340881596700,7.3535966796875,-0.4259033203125,0.5364837646484375,0.7491607666015625
1760471340891559700,7.3635595703125,-0.5052490234375,0.5808563232421875,0.77081298828125
1760471340901521400,7.373521484375,-0.6102752685546875,0.60748291015625,0.780792236328125
1760471340911483600,7.383483642578125,-0.6697235107421875,0.6020660400390625,0.7899322509765625
1760471340921445600,7.393445556640625,-0.6662445068359375,0.590240478515625,0.7647247314453125
1760471340931407400,7.403407470703125,-0.6386566162109375,0.5681915283203125,0.660003662109375
1760471340941369600,7.41336962890625,-0.647247314453125,0.495208740234375,0.5154876708984375
1760471340951331600,7.42333154296875,-0.64813232421875,0.37677001953125,0.3874664306640625
1760471340961293600,7.43329345703125,-0.6111907958984375,0.30096435546875,0.1582183837890625
1760471340971255600,7.443255615234375,-0.66693115234375,0.3596038818359375,-0.133575439453125
1760471340981218600,7.453218505859375,-0.8020172119140625,0.440216064453125,-0.20037841796875
1760471340991180500,7.4631806640625,-0.86297607421875,0.57733154296875,-0.1573333740234375
1760471341001142500,7.473142578125,-0.838897705078125,0.768280029296875,-0.098907470703125
1760471341011104500,7.4831044921875,-0.74810791015625,0.9845733642578125,-0.1092529296875
1760471341021066500,7.49306640625,-0.6708526611328125,1.1927337646484375,-0.273956298828125
1760471341031028500,7.503028564453125,-0.64337158203125,1.3399505615234375,-0.5388031005859375
1760471341040990500,7.512990478515625,-0.71966552734375,1.43853759765625,-0.8376922607421875
1760471341050952400,7.522952392578125,-0.866455078125,1.4001617431640625,-1.201019287109375
1760471341060914400,7.53291455078125,-1.0038299560546875,1.270294189453125,-1.5566253662109375
1760471341070877400,7.54287744140625,-1.0517120361328125,1.036529541015625,-1.767852783203125
1760471341080839700,7.552839599609375,-1.047882080078125,0.686187744140625,-1.86456298828125
1760471341090801400,7.562801513671875,-0.998077392578125,0.5778656005859375,-2.0348358154296875
1760471341110725600,7.5827255859375,-0.8419036865234375,0.72467041015625,-1.6544189453125
1760471341120687400,7.592687255859375,-0.765106201171875,0.9332427978515625,-1.5010833740234375
1760471341130649600,7.602649658203125,-0.7806243896484375,1.1083984375,-1.52142333984375
1760471341140611300,7.612611328125,-0.861236572265625,1.0485992431640625,-1.553375244140625
1760471341150573600,7.622573486328125,-0.9749298095703125,1.0365753173828125,-1.6915130615234375
1760471341160536600,7.63253662109375,-1.077362060546875,1.032928466796875,-1.837127685546875
1760471341170498600,7.64249853515625,-1.16552734375,0.9460296630859375,-1.8506927490234375
1760471341180461000,7.6524609375,-1.2330322265625,0.8383026123046875,-1.9045867919921875
1760471341190423300,7.66242333984375,-1.2926177978515625,0.703125,-2.05120849609375
1760471341329892000,7.80189208984375,-0.8977813720703125,0.8488616943359375,-1.8790130615234375
1760471341339854300,7.811854248046875,-0.9316558837890625,0.915740966796875,-1.79681396484375
1760471341349817300,7.8218173828125,-0.9744720458984375,0.966705322265625,-1.73406982421875
1760471341359779000,7.831779052734375,-0.9798583984375,1.0239105224609375,-1.6584625244140625
1760471341369741300,7.8417412109375,-0.96661376953125,1.034637451171875,-1.5402679443359375
1760471341379703300,7.851703369140625,-0.937591552734375,1.0885162353515625,-1.4906005859375
1760471341389665000,7.8616650390625,-0.891876220703125,1.150970458984375,-1.4458465576171875
1760471341399627300,7.871627197265625,-0.8554229736328125,1.1975860595703125,-1.3253631591796875
1760471341409589200,7.88158935546875,-0.8558807373046875,1.220947265625,-1.1200714111328125
1760471341419551200,7.89155126953125,-0.93243408203125,1.21307373046875,-1.0046539306640625
1760471341429513200,7.90151318359375,-1.0076141357421875,1.1701812744140625,-0.9803619384765625
1760471341439476200,7.911476318359375,-1.0102386474609375,1.091033935546875,-0.9866790771484375
1760471341449438200,7.921438232421875,-0.9406280517578125,1.0206756591796875,-0.9672393798828125
1760471341459400200,7.931400146484375,-0.82293701171875,1.0308837890625,-0.8754425048828125
1760471341469362200,7.941362060546875,-0.7283477783203125,0.991363525390625,-0.7504425048828125
1760471341479324200,7.95132421875,-0.6427764892578125,0.9768829345703125,-0.6929779052734375
1760471341489286100,7.9612861328125,-0.6006927490234375,0.9575653076171875,-0.5793914794921875
1760471341499248400,7.971248291015625,-0.5937347412109375,0.90484619140625,-0.4001312255859375
1760471341509210000,7.981210205078125,-0.5849151611328125,0.8979949951171875,-0.2340545654296875
1760471341519172000,7.991172119140625,-0.570098876953125,0.89508056640625,-0.0551605224609375
1760471341529134300,8.00113427734375,-0.5426025390625,0.8623046875,0.1358795166015625
1760471341539097300,8.011097412109375,-0.5294342041015625,0.855712890625,0.3767547607421875
1760471341549059000,8.02105908203125,-0.58648681640625,0.7725372314453125,0.5702972412109375
1760471341559021300,8.031021240234375,-0.6216583251953125,0.7130279541015625,0.6224365234375
1760471341568983000,8.040983154296875,-0.5608367919921875,0.685638427734375,0.762237548828125
1760471341578945300,8.0509453125,-0.5717620849609375,0.665618896484375,0.917572021484375
1760471341588907300,8.0609072265625,-0.677001953125,0.6646270751953125,0.8930511474609375
1760471341598869000,8.070868896484376,-0.7274017333984375,0.6341094970703125,0.7811126708984375
1760471341608831200,8.080831298828125,-0.6822052001953125,0.5816802978515625,0.708160400390625
1760471341618793200,8.090793212890626,-0.640838623046875,0.55267333984375,0.6025543212890625
1760471341628755200,8.100755126953125,-0.63885498046875,0.580169677734375,0.4365997314453125
1760471341638718200,8.11071826171875,-0.67645263671875,0.6283111572265625,0.2596588134765625
1760471341648680200,8.12068017578125,-0.7083892822265625,0.6792755126953125,0.0915985107421875
1760471341658642200,8.13064208984375,-0.7138214111328125,0.7231903076171875,-0.1029815673828125
1760471341668604200,8.140604248046875,-0.7020416259765625,0.7657623291015625,-0.30047607421875
1760471341678566100,8.150566162109374,-0.69073486328125,0.8314208984375,-0.4552001953125
1760471341688528400,8.1605283203125,-0.6875762939453125,0.9308624267578125,-0.5782470703125
1760471341698490000,8.170489990234374,-0.723480224609375,1.06951904296875,-0.7348480224609375
1760471341708452400,8.180452392578125,-0.800140380859375,1.187286376953125,-0.894378662109375
1760471341718414300,8.190414306640625,-0.887664794921875,1.1375579833984375,-1.0711212158203125
1760471341728376000,8.2003759765625,-0.9166717529296875,1.0524444580078125,-1.332183837890625
1760471341738339000,8.210339111328125,-0.9283905029296875,0.9864959716796875,-1.5058746337890625
1760471341748301300,8.22030126953125,-0.92620849609375,0.9552764892578125,-1.5465850830078125
1760471341758263000,8.230262939453125,-0.920501708984375,1.04742431640625,-1.58636474609375
1760471341768225300,8.240225341796876,-0.9013519287109375,1.098480224609375,-1.6417083740234375
1760471341778187300,8.250187255859375,-0.848602294921875,0.9999237060546875,-1.6403350830078125
1760471341788149000,8.26014892578125,-0.7310638427734375,0.9888458251953125,-1.760589599609375
1760471341798111200,8.270111328125,-0.6440582275390625,0.9699859619140625,-1.8271942138671875
1760471341808073200,8.2800732421875,-0.6502838134765625,0.889801025390625,-1.813232421875
1760471341818035200,8.29003515625,-0.78057861328125,0.8516693115234375,-1.872802734375
1760471341827997200,8.2999970703125,-0.9464111328125,0.82232666015625,-1.981201171875
1760471341997353000,8.46935302734375,-0.8471221923828125,0.85235595703125,-1.847991943359375
1760471342007315200,8.479315185546875,-0.894775390625,0.9084320068359375,-1.7670440673828125
1760471342017277200,8.489277099609374,-0.9257354736328125,0.88482666015625,-1.749053955078125
1760471342027239200,8.4992392578125,-0.941070556640625,0.8594818115234375,-1.792877197265625
1760471342037202200,8.5092021484375,-0.9585723876953125,0.9228057861328125,-1.8114471435546875
1760471342047164200,8.5191640625,-0.982879638671875,1.0623931884765625,-1.6932830810546875
1760471342057126400,8.52912646484375,-0.9573974609375,1.1579437255859375,-1.4858245849609375
1760471342067088100,8.539088134765626,-0.9183807373046875,1.1612701416015625,-1.37640380859375
1760471342077050000,8.549050048828125,-0.874847412109375,1.10675048828125,-1.400146484375
1760471342087012400,8.559012451171874,-0.809173583984375,1.0948486328125,-1.4617767333984375
1760471342096974000,8.56897412109375,-0.74224853515625,1.1504669189453125,-1.38226318359375
1760471342106936300,8.578936279296874,-0.7158355712890625,1.2108154296875,-1.2084197998046875
1760471342116898300,8.588898193359375,-0.78106689453125,1.27923583984375,-1.0507965087890625
1760471342126860000,8.598860107421874,-0.92840576171875,1.3487701416015625,-0.8843994140625
1760471342136822300,8.608822265625,-1.0611572265625,1.324951171875,-0.68280029296875
1760471342146784300,8.6187841796875,-1.11199951171875,1.2186431884765625,-0.525177001953125
1760471342156747000,8.6287470703125,-1.0774383544921875,1.1223907470703125,-0.3994140625
1760471342166709200,8.638709228515625,-0.95977783203125,1.0053558349609375,-0.28857421875
1760471342176671200,8.648671142578126,-0.80059814453125,0.914581298828125,-0.183258056640625
1760471342186632700,8.6586328125,-0.6687774658203125,0.7958526611328125,-0.0679931640625
1760471342196594700,8.6685947265625,-0.5726165771484375,0.688385009765625,0.0186614990234375
1760471342206556700,8.678556640625,-0.4892425537109375,0.646728515625,0.1100921630859375
1760471342216518700,8.6885185546875,-0.4261322021484375,0.6324920654296875,0.250885009765625
1760471342226480600,8.698480712890625,-0.3727264404296875,0.5992279052734375,0.4274139404296875
1760471342236443000,8.70844287109375,-0.355194091796875,0.5768585205078125,0.59503173828125
1760471342246404600,8.718404541015625,-0.404998779296875,0.5621490478515625,0.6884002685546875
1760471342256366800,8.728366943359376,-0.47882080078125,0.5457305908203125,0.735870361328125
1760471342266329900,8.738329833984375,-0.53515625,0.50115966796875,0.7766571044921875
1760471342276291600,8.74829150390625,-0.56402587890625,0.4712066650390625,0.7599639892578125
1760471342286253600,8.758253662109375,-0.5750885009765625,0.434173583984375,0.6877288818359375
1760471342296215800,8.7682158203125,-0.5684967041015625,0.3920745849609375,0.5747528076171875
1760471342306177500,8.778177490234375,-0.567474365234375,0.376434326171875,0.43292236328125
1760471342316139800,8.788139892578124,-0.5917510986328125,0.39056396484375,0.2833099365234375
1760471342326101800,8.798101806640625,-0.6305389404296875,0.4065704345703125,0.178314208984375
1760471342336063700,8.808063720703124,-0.654541015625,0.4407196044921875,0.091033935546875
1760471342346025700,8.818025634765625,-0.680877685546875,0.528533935546875,-0.046417236328125
1760471342355987700,8.82798779296875,-0.72113037109375,0.603179931640625,-0.1993408203125
1760471342365949700,8.83794970703125,-0.7667388916015625,0.65142822265625,-0.3678436279296875
1760471342375912700,8.84791259765625,-0.7957000732421875,0.6802825927734375,-0.54644775390625
1760471342385874700,8.857874755859376,-0.78704833984375,0.7257080078125,-0.7120361328125
1760471342395836700,8.867836669921875,-0.745330810546875,0.72723388671875,-0.784637451171875
1760471342405798700,8.877798583984376,-0.6899566650390625,0.751708984375,-0.859954833984375
1760471342415760600,8.8877607421875,-0.640655517578125,0.867431640625,-0.980438232421875
1760471342425722600,8.89772265625,-0.6433868408203125,0.91595458984375,-1.038421630859375
1760471342435684600,8.9076845703125,-0.6932220458984375,0.9676666259765625,-1.1114044189453125
1760471342445646800,8.917646728515624,-0.758697509765625,1.0225830078125,-1.2134246826171875
1760471342455608600,8.927608642578125,-0.807037353515625,1.048675537109375,-1.3055877685546875
1760471342465570800,8.93757080078125,-0.8010101318359375,1.0794219970703125,-1.3610076904296875
1760471342475532800,8.94753271484375,-0.774932861328125,1.1419830322265625,-1.3668212890625
1760471342485495800,8.957495849609375,-0.7966156005859375,1.2132110595703125,-1.3549346923828125
1760471342495457500,8.96745751953125,-0.9227447509765625,1.1754608154296875,-1.398406982421875
1760471342505419800,8.977419677734375,-1.0809326171875,1.2033233642578125,-1.58392333984375
1760471342515381500,8.987381591796876,-1.1641693115234375,1.1025543212890625,-1.7508544921875
1760471342525343700,8.99734375,-1.1607513427734375,0.9837188720703125,-1.877777099609375
1760471342535305700,9.0073056640625,-1.09710693359375,0.90911865234375,-1.888916015625
1760471342545267500,9.017267333984375,-1.0616607666015625,0.9206390380859375,-1.866241455078125
1760471342555229700,9.027229736328126,-1.08404541015625,0.949066162109375,-1.88800048828125
1760471342565191700,9.037191650390625,-1.0778045654296875,0.8737945556640625,-1.9715118408203125
1760471342745754600,9.217754638671876,-0.88604736328125,1.0203399658203125,-1.9143218994140625
1760471342755716900,9.227716796875,-0.960723876953125,1.0838470458984375,-1.8253173828125
1760471342765678600,9.2376787109375,-1.0335235595703125,1.1531829833984375,-1.796875
1760471342775640800,9.247640869140625,-1.0546722412109375,1.1695709228515625,-1.7583160400390625
1760471342785602800,9.257602783203126,-1.0594482421875,1.219390869140625,-1.7382354736328125
1760471342795564500,9.267564453125,-1.05712890625,1.2617034912109375,-1.6167144775390625
1760471342805526800,9.27752685546875,-1.063629150390625,1.3316497802734375,-1.4596099853515625
1760471342815488500,9.287488525390625,-1.0630645751953125,1.4468536376953125,-1.2380828857421875
1760471342825450800,9.29745068359375,-0.9839019775390625,1.51019287109375,-0.933013916015625
1760471342835412700,9.307412841796875,-0.883209228515625,1.4793243408203125,-0.6622314453125
1760471342845374500,9.31737451171875,-0.82421875,1.3714447021484375,-0.51190185546875
1760471342855337700,9.327337646484375,-0.786376953125,1.225677490234375,-0.463104248046875
1760471342865299700,9.3372998046875,-0.748565673828125,1.047454833984375,-0.43646240234375
1760471342875261700,9.34726171875,-0.6668243408203125,0.9072723388671875,-0.378173828125
1760471342885223700,9.3572236328125,-0.574005126953125,0.84375,-0.236175537109375
1760471342895185700,9.367185546875,-0.5435943603515625,0.8615570068359375,-0.038604736328125
1760471342905148000,9.37714794921875,-0.5526885986328125,0.869873046875,0.17901611328125
1760471342915109600,9.387109619140626,-0.5568389892578125,0.838623046875,0.3376617431640625
1760471342925071600,9.397071533203125,-0.531829833984375,0.7838287353515625,0.4438934326171875
1760471342935033900,9.407033935546876,-0.5027923583984375,0.70880126953125,0.5576324462890625
1760471342944995600,9.41699560546875,-0.489410400390625,0.6351776123046875,0.65704345703125
1760471342954957800,9.426957763671876,-0.4925079345703125,0.579010009765625,0.6952362060546875
1760471342964919800,9.436919921875,-0.5080108642578125,0.53302001953125,0.6749420166015625
1760471342974881500,9.446881591796876,-0.507110595703125,0.4925994873046875,0.65081787109375
1760471342984844800,9.4568447265625,-0.493804931640625,0.45452880859375,0.6553955078125
1760471342994806800,9.466806884765624,-0.4797515869140625,0.4570159912109375,0.6326141357421875
1760471343004768500,9.4767685546875,-0.4628143310546875,0.4774017333984375,0.6059112548828125
1760471343014730800,9.486730712890624,-0.446533203125,0.485076904296875,0.5420684814453125
1760471343024692700,9.496692626953125,-0.4302825927734375,0.485748291015625,0.418975830078125
1760471343034654700,9.50665478515625,-0.429656982421875,0.4998016357421875,0.286224365234375
1760471343044616700,9.51661669921875,-0.4428863525390625,0.5297393798828125,0.17852783203125
1760471343054578700,9.52657861328125,-0.4761199951171875,0.5860595703125,0.0726776123046875
1760471343064540700,9.536540771484376,-0.506744384765625,0.6355743408203125,-0.03564453125
1760471343074502700,9.546502685546875,-0.534271240234375,0.724639892578125,-0.121978759765625
1760471343084465000,9.55646484375,-0.5631866455078125,0.869964599609375,-0.251129150390625
1760471343094426600,9.566426513671875,-0.5399169921875,0.9949951171875,-0.4495391845703125
1760471343104388600,9.576388671875,-0.5471038818359375,1.010833740234375,-0.6171722412109375
1760471343114351900,9.586351806640625,-0.562591552734375,0.998016357421875,-0.7735595703125
1760471343124313600,9.596313720703124,-0.5523223876953125,0.990997314453125,-0.932403564453125
1760471343134275600,9.606275634765625,-0.5612945556640625,1.021392822265625,-1.0431060791015625
1760471343144237800,9.61623779296875,-0.6369781494140625,1.0504913330078125,-1.1399078369140625
1760471343154199600,9.626199462890625,-0.79791259765625,1.052703857421875,-1.238739013671875
1760471343164161800,9.636161865234374,-0.961578369140625,1.103179931640625,-1.38653564453125
1760471343174123800,9.646123779296875,-1.0861053466796875,1.0448760986328125,-1.44989013671875
1760471343184089600,9.656089599609375,-1.146636962890625,1.042755126953125,-1.554443359375
1760471343194051600,9.666051513671874,-1.127716064453125,1.07012939453125,-1.649871826171875
1760471343204013600,9.676013671875,-1.107391357421875,1.042388916015625,-1.7011566162109375
1760471343213975600,9.6859755859375,-1.1468048095703125,0.965179443359375,-1.77435302734375
1760471343223937500,9.6959375,-1.201324462890625,0.8832244873046875,-1.9364471435546875
1760471343233899500,9.7058994140625,-1.17645263671875,0.8239288330078125,-2.085968017578125
1760471343421934600,9.8939345703125,-0.87298583984375,1.110748291015625,-1.8366546630859375
1760471343431896600,9.903896484375,-0.8923797607421875,1.180206298828125,-1.743194580078125
1760471343441858600,9.913858642578125,-0.8733367919921875,1.1879119873046875,-1.63336181640625
1760471343451820500,9.923820556640624,-0.8332672119140625,1.155792236328125,-1.5871734619140625
1760471343461782500,9.933782470703125,-0.7725830078125,1.127471923828125,-1.5632476806640625
1760471343471744500,9.94374462890625,-0.730316162109375,1.1317291259765625,-1.5240631103515625
1760471343481706500,9.95370654296875,-0.7498321533203125,1.2358245849609375,-1.4290008544921875
1760471343491668500,9.96366845703125,-0.818603515625,1.2844390869140625,-1.2117919921875
1760471343501630500,9.97363037109375,-0.9239044189453125,1.3832244873046875,-1.05084228515625
1760471343511592700,9.9835927734375,-0.9471588134765625,1.4036102294921875,-0.8616943359375
1760471343521554400,9.993554443359375,-0.8016510009765625,1.38433837890625,-0.633758544921875
1760471343531517400,10.003517333984375,-0.6789703369140625,1.336822509765625,-0.40576171875
1760471343541479700,10.013479736328126,-0.5982818603515625,1.228973388671875,-0.26904296875
1760471343551441700,10.023441650390625,-0.5370941162109375,1.051483154296875,-0.1623687744140625
1760471343561403400,10.0334033203125,-0.49267578125,0.920013427734375,-0.1144561767578125
1760471343571365600,10.04336572265625,-0.4946746826171875,0.8268280029296875,-0.0440216064453125
1760471343581327600,10.05332763671875,-0.532623291015625,0.72467041015625,0.0952911376953125
1760471343591289600,10.06328955078125,-0.5541839599609375,0.68707275390625,0.258056640625
1760471343601251600,10.07325146484375,-0.5771026611328125,0.68353271484375,0.385955810546875
1760471343611213600,10.083213623046875,-0.6205291748046875,0.67730712890625,0.5141754150390625
1760471343621175600,10.093175537109374,-0.64715576171875,0.64312744140625,0.614898681640625
1760471343631137500,10.103137451171875,-0.6142425537109375,0.624481201171875,0.632110595703125
1760471343641099500,10.113099609375,-0.5649871826171875,0.602386474609375,0.6360931396484375
1760471343651061500,10.1230615234375,-0.5457305908203125,0.569427490234375,0.6872100830078125
1760471343661023700,10.133023681640625,-0.5338287353515625,0.568572998046875,0.74639892578125
1760471343670985500,10.1429853515625,-0.513214111328125,0.5927886962890625,0.7295379638671875
1760471343680947500,10.152947509765625,-0.5062408447265625,0.6104888916015625,0.645294189453125
1760471343690910500,10.162910400390626,-0.5146331787109375,0.634521484375,0.50030517578125
1760471343700872700,10.172872802734375,-0.5410614013671875,0.6604156494140625,0.341766357421875
1760471343710834400,10.18283447265625,-0.5582427978515625,0.6761474609375,0.2085723876953125
1760471343720796700,10.192796630859375,-0.579437255859375,0.728515625,0.0831756591796875
1760471343730758700,10.202758544921876,-0.61077880859375,0.8060760498046875,-0.02734375
1760471343740720400,10.212720458984375,-0.6368560791015625,0.8830108642578125,-0.2001495361328125
1760471343750682600,10.2226826171875,-0.647186279296875,0.9095611572265625,-0.3993377685546875
1760471343760644600,10.23264453125,-0.668365478515625,0.9462890625,-0.60125732421875
1760471343770606600,10.242606689453124,-0.662994384765625,0.972015380859375,-0.832244873046875
1760471343780568600,10.252568603515625,-0.606658935546875,0.9631805419921875,-1.0236053466796875
1760471343790530600,10.262530517578124,-0.5634918212890625,0.9842529296875,-1.143402099609375
1760471343800492500,10.272492431640625,-0.608551025390625,1.0986328125,-1.13970947265625
1760471343810454500,10.28245458984375,-0.7197113037109375,1.1098785400390625,-1.183441162109375
1760471343820416500,10.29241650390625,-0.9445343017578125,1.04315185546875,-1.2677001953125
1760471343830378500,10.30237841796875,-1.1372833251953125,1.0431671142578125,-1.478759765625
1760471343840340700,10.3123408203125,-1.1939849853515625,0.9862823486328125,-1.6778411865234375
1760471343850303700,10.3223037109375,-1.1260223388671875,0.9640350341796875,-1.719879150390625
1760471343860265500,10.332265380859376,-0.994171142578125,1.076629638671875,-1.6650390625
1760471343870227500,10.3422275390625,-0.881988525390625,1.16619873046875,-1.578094482421875
1760471343880189700,10.352189697265626,-0.873870849609375,1.107513427734375,-1.68121337890625
1760471343890151400,10.3621513671875,-0.89141845703125,1.0634765625,-1.9167022705078125
1760471343900113700,10.37211376953125,-0.895477294921875,0.92333984375,-1.98858642578125
1760471344159126500,10.63112646484375,-1.0092620849609375,1.172943115234375,-1.8153076171875
1760471344169088500,10.641088623046874,-1.00665283203125,1.2338409423828125,-1.656219482421875
1760471344179051500,10.651051513671876,-1.0090789794921875,1.256988525390625,-1.5053863525390625
1760471344189010400,10.661010498046876,-0.999969482421875,1.28216552734375,-1.36309814453125
1760471344198972400,10.670972412109375,-0.9691009521484375,1.267730712890625,-1.242095947265625
1760471344208934700,10.6809345703125,-0.9252471923828125,1.2243194580078125,-1.1706695556640625
1760471344218896400,10.690896484375,-0.8934783935546875,1.230255126953125,-1.0699462890625
1760471344228858400,10.7008583984375,-0.88702392578125,1.2090911865234375,-0.861785888671875
1760471344238820600,10.710820556640625,-0.8826141357421875,1.128753662109375,-0.6493377685546875
1760471344248782300,10.7207822265625,-0.8677520751953125,1.0894012451171875,-0.4720001220703125
1760471344258744600,10.73074462890625,-0.8330535888671875,1.01641845703125,-0.3072509765625
1760471344268706600,10.74070654296875,-0.7337493896484375,0.9706878662109375,-0.0626678466796875
1760471344278668300,10.750668212890625,-0.655914306640625,0.8844757080078125,0.1588134765625
1760471344288630500,10.760630615234374,-0.57891845703125,0.847442626953125,0.2196044921875
1760471344298592300,10.77059228515625,-0.5050201416015625,0.77227783203125,0.295654296875
1760471344308554500,10.780554443359375,-0.44866943359375,0.7131500244140625,0.352691650390625
1760471344318516500,10.7905166015625,-0.38623046875,0.683258056640625,0.4476470947265625
1760471344328478500,10.800478515625,-0.348968505859375,0.61431884765625,0.5698394775390625
1760471344338440400,10.8104404296875,-0.344757080078125,0.5879058837890625,0.6590423583984375
1760471344348402400,10.82040234375,-0.3812713623046875,0.5954742431640625,0.7058563232421875
1760471344358364400,10.830364501953126,-0.442840576171875,0.5913848876953125,0.78643798828125
1760471344368327400,10.840327392578125,-0.5365447998046875,0.5763092041015625,0.8172607421875
1760471344378289400,10.850289306640626,-0.63177490234375,0.5473175048828125,0.797454833984375
1760471344388251600,10.860251708984375,-0.6784820556640625,0.5059661865234375,0.73626708984375
1760471344398213400,10.87021337890625,-0.6710052490234375,0.4878692626953125,0.650787353515625
1760471344408175400,10.88017529296875,-0.652618408203125,0.4824066162109375,0.5901031494140625
1760471344418137600,10.8901376953125,-0.6348114013671875,0.5187530517578125,0.4946746826171875
1760471344428099300,10.900099365234375,-0.626617431640625,0.5725555419921875,0.3980560302734375
1760471344438061600,10.9100615234375,-0.6390533447265625,0.6445159912109375,0.3119659423828125
1760471344448023600,10.9200234375,-0.6484222412109375,0.71197509765625,0.2273406982421875
1760471344457985300,10.9299853515625,-0.662872314453125,0.785064697265625,0.0960540771484375
1760471344467947500,10.939947509765625,-0.6793365478515625,0.857330322265625,-0.071075439453125
1760471344477909200,10.9499091796875,-0.686553955078125,0.9331207275390625,-0.215789794921875
1760471344487871500,10.95987158203125,-0.6632843017578125,1.01605224609375,-0.343780517578125
1760471344497833500,10.96983349609375,-0.6223602294921875,1.100860595703125,-0.4881744384765625
1760471344507795500,10.97979541015625,-0.5883941650390625,1.1333160400390625,-0.65399169921875
1760471344517757400,10.98975732421875,-0.59368896484375,1.1200408935546875,-0.8354339599609375
1760471344527719400,10.999719482421876,-0.62506103515625,1.047576904296875,-1.0368804931640625
1760471344537681400,11.009681396484375,-0.667388916015625,0.9756927490234375,-1.26416015625
1760471344547644400,11.01964453125,-0.7347412109375,0.907989501953125,-1.406494140625
1760471344557606400,11.0296064453125,-0.81658935546875,0.8237457275390625,-1.5331573486328125
1760471344567568600,11.039568603515624,-0.9080657958984375,0.7610626220703125,-1.6331024169921875
1760471344577530400,11.0495302734375,-1.0223541259765625,0.6948699951171875,-1.7040252685546875
1760471344587492400,11.059492431640624,-1.1060638427734375,0.7286529541015625,-1.796295166015625
1760471344597454600,11.06945458984375,-1.1495208740234375,0.8348541259765625,-1.8325042724609375
1760471344607416300,11.079416259765624,-1.164031982421875,0.89447021484375,-1.7778472900390625
1760471344617378600,11.089378662109375,-1.215576171875,0.9429168701171875,-1.77593994140625
1760471344627340500,11.099340576171874,-1.36761474609375,0.911895751953125,-1.888397216796875
1760471344637302300,11.10930224609375,-1.5273895263671875,0.8233184814453125,-2.03277587890625
1760471344806657500,11.278657470703125,-0.852569580078125,0.866241455078125,-1.8639984130859375
1760471344816619500,11.28861962890625,-0.9027099609375,0.90924072265625,-1.8250274658203125
1760471344826581500,11.29858154296875,-0.9371795654296875,0.9053955078125,-1.76617431640625
1760471344836543500,11.30854345703125,-0.946441650390625,0.867156982421875,-1.7096405029296875
1760471344846505500,11.31850537109375,-0.95355224609375,0.832427978515625,-1.69000244140625
1760471344856467500,11.328467529296875,-0.94415283203125,0.82611083984375,-1.674102783203125
1760471344866429400,11.338429443359376,-0.93548583984375,0.8479156494140625,-1.624481201171875
1760471344876391400,11.348391357421875,-0.93603515625,0.9190673828125,-1.5391998291015625
1760471344886353400,11.358353515625,-0.9172210693359375,1.0033416748046875,-1.4040679931640625
1760471344896315400,11.3683154296875,-0.8911895751953125,1.0952911376953125,-1.245391845703125
1760471344906277400,11.37827734375,-0.8592529296875,1.1529998779296875,-1.006805419921875
1760471344916239600,11.388239501953125,-0.863372802734375,1.16021728515625,-0.77423095703125
1760471344926201300,11.398201416015626,-0.876708984375,1.1477508544921875,-0.614166259765625
1760471344936163300,11.408163330078125,-0.869598388671875,1.081268310546875,-0.5184478759765625
1760471344946125600,11.41812548828125,-0.8453826904296875,1.0148773193359375,-0.3550262451171875
1760471344956088600,11.428088623046875,-0.87640380859375,0.9542388916015625,-0.18731689453125
1760471344966050300,11.43805029296875,-0.8915863037109375,0.930511474609375,-0.0805511474609375
1760471344976012500,11.448012451171875,-0.802032470703125,0.8905487060546875,0.1372833251953125
1760471344985974500,11.457974609375,-0.652191162109375,0.8519744873046875,0.3647918701171875
1760471344995936500,11.4679365234375,-0.4803619384765625,0.855377197265625,0.53778076171875
1760471345005898500,11.4778984375,-0.337615966796875,0.816192626953125,0.7157440185546875
1760471345015860500,11.487860595703125,-0.23626708984375,0.767822265625,0.797576904296875
1760471345025822500,11.497822509765625,-0.213287353515625,0.6571807861328125,0.783843994140625
1760471345035784400,11.507784423828125,-0.275421142578125,0.5155029296875,0.7117767333984375
1760471345045746400,11.517746337890625,-0.364288330078125,0.381561279296875,0.619384765625
1760471345055708400,11.52770849609375,-0.4394073486328125,0.276397705078125,0.52203369140625
1760471345065670400,11.53767041015625,-0.4925079345703125,0.221710205078125,0.4739532470703125
1760471345075632400,11.54763232421875,-0.5326385498046875,0.2274322509765625,0.4682464599609375
1760471345085594400,11.557594482421875,-0.560150146484375,0.27734375,0.46258544921875
1760471345095556600,11.567556640625,-0.590545654296875,0.3386993408203125,0.4758453369140625
1760471345105518300,11.577518310546875,-0.6352996826171875,0.4281005859375,0.473052978515625
1760471345115480300,11.587480224609376,-0.6849822998046875,0.5052947998046875,0.4786224365234375
1760471345125442600,11.597442626953125,-0.7276611328125,0.59722900390625,0.4503326416015625
1760471345135404300,11.607404296875,-0.7509613037109375,0.71136474609375,0.3560943603515625
1760471345145366500,11.617366455078125,-0.7728729248046875,0.773529052734375,0.20916748046875
1760471345155328500,11.62732861328125,-0.7957000732421875,0.8300628662109375,0.019775390625
1760471345165290200,11.637290283203125,-0.81719970703125,0.9075164794921875,-0.174072265625
1760471345175253500,11.64725341796875,-0.8521575927734375,0.97918701171875,-0.35772705078125
1760471345185215500,11.657215576171875,-0.901031494140625,1.06280517578125,-0.52471923828125
1760471345195177500,11.667177490234375,-0.9537200927734375,1.1098785400390625,-0.69012451171875
1760471345205139500,11.677139404296875,-1.010833740234375,1.1600799560546875,-0.88665771484375
1760471345215101400,11.687101318359375,-1.066375732421875,1.2069854736328125,-1.10333251953125
1760471345225063400,11.6970634765625,-1.113037109375,1.2370758056640625,-1.296478271484375
1760471345235025400,11.707025390625,-1.118621826171875,1.265960693359375,-1.4619140625
1760471345244987400,11.7169873046875,-1.081878662109375,1.2458343505859375,-1.5500640869140625
1760471345254949400,11.726949462890625,-1.01800537109375,1.2340087890625,-1.682403564453125
1760471345264911400,11.736911376953126,-0.9910736083984375,1.1158905029296875,-1.759552001953125
1760471345274873600,11.74687353515625,-1.0143280029296875,0.994140625,-1.842620849609375
1760471345284835300,11.75683544921875,-1.0569915771484375,0.99639892578125,-1.97869873046875
1760471345294797300,11.76679736328125,-1.0993194580078125,1.00787353515625,-2.0156707763671875
1760471345494038300,11.966038330078124,-1.1361236572265625,1.228851318359375,-1.8883209228515625
1760471345504000500,11.97600048828125,-1.16424560546875,1.3190765380859375,-1.7539520263671875
1760471345513962500,11.98596240234375,-1.1839447021484375,1.3993682861328125,-1.6530303955078125
1760471345523924200,11.99592431640625,-1.1696319580078125,1.432586669921875,-1.518310546875
1760471345533886500,12.005886474609374,-1.0845489501953125,1.3851470947265625,-1.397186279296875
1760471345543848400,12.015848388671875,-0.994140625,1.27880859375,-1.39013671875
1760471345553810400,12.025810546875,-0.9102020263671875,1.158111572265625,-1.4450531005859375
1760471345563772400,12.0357724609375,-0.820526123046875,1.0455169677734375,-1.5085296630859375
1760471345573734400,12.045734375,-0.755279541015625,1.0225830078125,-1.5305633544921875
1760471345583696400,12.0556962890625,-0.734039306640625,1.10015869140625,-1.45086669921875
1760471345593658400,12.065658447265625,-0.8013763427734375,1.22235107421875,-1.28759765625
1760471345603620600,12.07562060546875,-0.93511962890625,1.3592681884765625,-1.0711669921875
1760471345613582300,12.085582275390625,-1.011383056640625,1.42626953125,-0.793304443359375
1760471345623544600,12.095544677734376,-1.01708984375,1.4488677978515625,-0.4610748291015625
1760471345633506600,12.105506591796875,-0.9902496337890625,1.4188385009765625,-0.151947021484375
1760471345643469300,12.11546923828125,-0.884918212890625,1.328033447265625,0.0536651611328125
1760471345653431300,12.125431396484375,-0.7923736572265625,1.1771240234375,0.1963653564453125
1760471345663393500,12.1353935546875,-0.7009429931640625,1.034454345703125,0.218017578125
1760471345673355300,12.145355224609375,-0.5701751708984375,0.8906707763671875,0.22894287109375
1760471345683317500,12.1553173828125,-0.4418792724609375,0.7733154296875,0.32208251953125
1760471345693279500,12.165279541015625,-0.3165435791015625,0.70172119140625,0.489166259765625
1760471345703241500,12.175241455078124,-0.221893310546875,0.6944580078125,0.6350555419921875
1760471345713203500,12.185203369140625,-0.2198028564453125,0.618194580078125,0.771270751953125
1760471345723165400,12.19516552734375,-0.2498931884765625,0.60272216796875,0.7855682373046875
1760471345733127400,12.20512744140625,-0.279144287109375,0.60546875,0.79541015625
1760471345743089400,12.21508935546875,-0.3081512451171875,0.608489990234375,0.7719573974609375
1760471345753051400,12.225051513671875,-0.3398590087890625,0.61651611328125,0.7432708740234375
1760471345763013400,12.235013427734375,-0.3818359375,0.599761962890625,0.6959381103515625
1760471345772975400,12.244975341796875,-0.434539794921875,0.5492706298828125,0.5620269775390625
1760471345782937600,12.2549375,-0.48516845703125,0.4779510498046875,0.3812255859375
1760471345792899300,12.2648994140625,-0.5304412841796875,0.4130706787109375,0.27020263671875
1760471345802861600,12.274861572265625,-0.5706024169921875,0.3994598388671875,0.17010498046875
1760471345812823600,12.284823486328126,-0.6309356689453125,0.4427642822265625,0.0670928955078125
1760471345822785300,12.294785400390625,-0.70184326171875,0.518157958984375,0.010986328125
1760471345832747500,12.30474755859375,-0.7577362060546875,0.574371337890625,-0.082733154296875
1760471345842709500,12.31470947265625,-0.75335693359375,0.609375,-0.2576446533203125
1760471345852671500,12.32467138671875,-0.718475341796875,0.6231689453125,-0.4223175048828125
1760471345862633500,12.334633544921875,-0.6844329833984375,0.636474609375,-0.590484619140625
1760471345872595500,12.344595458984376,-0.6622314453125,0.7192535400390625,-0.633636474609375
1760471345882557400,12.354557373046875,-0.682342529296875,0.88525390625,-0.6110382080078125
1760471345892519400,12.36451953125,-0.749420166015625,1.0196380615234375,-0.744232177734375
1760471345902481700,12.374481689453125,-0.8552703857421875,1.0314788818359375,-0.9837493896484375
1760471345912444400,12.3844443359375,-0.9550323486328125,0.99053955078125,-1.1999664306640625
1760471345922406400,12.394406494140625,-1.0080413818359375,0.939300537109375,-1.3385162353515625
1760471345932368600,12.40436865234375,-1.0196380615234375,0.9517822265625,-1.4165191650390625
1760471345942330400,12.414330322265625,-1.000518798828125,0.971832275390625,-1.500244140625
1760471345952292400,12.424292236328125,-1.0391998291015625,0.90472412109375,-1.600921630859375
1760471345962254600,12.434254638671876,-1.11627197265625,0.8088531494140625,-1.7730712890625
1760471345972216300,12.44421630859375,-1.17095947265625,0.7097320556640625,-1.9655609130859375
1760471345982178600,12.454178466796876,-1.207000732421875,0.6969451904296875,-2.0730743408203125
1760471346181419300,12.653419189453125,-1.06500244140625,0.875579833984375,-1.8799285888671875
1760471346191384600,12.663384521484375,-1.105438232421875,0.8758544921875,-1.808135986328125
1760471346201346600,12.6733466796875,-1.11102294921875,0.8719024658203125,-1.7830352783203125
1760471346211308500,12.68330859375,-1.1067962646484375,0.8544921875,-1.78399658203125
1760471346221270500,12.6932705078125,-1.0979766845703125,0.8692474365234375,-1.7223663330078125
1760471346231232800,12.703232666015625,-1.061492919921875,0.8484344482421875,-1.5404205322265625
1760471346241194500,12.713194580078126,-0.98663330078125,0.878082275390625,-1.4084014892578125
1760471346251156500,12.723156494140625,-0.9166412353515625,0.8925933837890625,-1.2724761962890625
1760471346261118500,12.733118408203126,-0.852996826171875,0.8758697509765625,-1.162139892578125
1760471346271080400,12.74308056640625,-0.7870025634765625,0.8274688720703125,-1.0926971435546875
1760471346281042700,12.753042724609376,-0.7355499267578125,0.7447509765625,-1.030792236328125
1760471346291004400,12.76300439453125,-0.6919097900390625,0.7320556640625,-0.9630279541015625
1760471346300966400,12.77296630859375,-0.709686279296875,0.75,-0.7916107177734375
1760471346310928600,12.7829287109375,-0.75836181640625,0.768798828125,-0.5851898193359375
1760471346320890400,12.792890380859374,-0.7971038818359375,0.819854736328125,-0.417388916015625
1760471346330852600,12.8028525390625,-0.8060150146484375,0.8257904052734375,-0.2295989990234375
1760471346340814600,12.812814697265624,-0.784637451171875,0.8040008544921875,-0.082916259765625
1760471346350776300,12.8227763671875,-0.6819305419921875,0.828643798828125,0.0625762939453125
1760471346360738600,12.832738525390624,-0.5709381103515625,0.81005859375,0.2363433837890625
1760471346370700500,12.842700439453125,-0.4918060302734375,0.7829132080078125,0.374786376953125
1760471346380662500,12.85266259765625,-0.4437103271484375,0.73974609375,0.4946441650390625
1760471346390624500,12.86262451171875,-0.433502197265625,0.692138671875,0.5710601806640625
1760471346400586500,12.87258642578125,-0.437835693359375,0.6733551025390625,0.651458740234375
1760471346410548500,12.882548583984375,-0.4484710693359375,0.6454925537109375,0.7686004638671875
1760471346420510500,12.892510498046875,-0.45880126953125,0.6235504150390625,0.8494110107421875
1760471346430472700,12.90247265625,-0.488189697265625,0.607208251953125,0.879150390625
1760471346440434400,12.912434326171875,-0.5445556640625,0.5963134765625,0.864288330078125
1760471346450396400,12.922396484375,-0.62249755859375,0.5834503173828125,0.811309814453125
1760471346460358700,12.932358642578125,-0.678802490234375,0.563262939453125,0.71868896484375
1760471346470321400,12.9423212890625,-0.69500732421875,0.5459442138671875,0.5998077392578125
1760471346480283400,12.952283447265625,-0.676361083984375,0.5497894287109375,0.4806671142578125
1760471346490245600,12.96224560546875,-0.6646575927734375,0.567230224609375,0.384765625
1760471346500207400,12.972207275390625,-0.6895599365234375,0.62127685546875,0.2979736328125
1760471346510169600,12.982169677734374,-0.7184600830078125,0.6807403564453125,0.2010955810546875
1760471346520131600,12.992131591796875,-0.7322845458984375,0.7582550048828125,0.0684967041015625
1760471346530093300,13.00209326171875,-0.7215576171875,0.826019287109375,-0.071136474609375
1760471346540055600,13.0120556640625,-0.697418212890625,0.8784332275390625,-0.2134857177734375
1760471346550017500,13.022017578125,-0.7005767822265625,0.9236297607421875,-0.339385986328125
1760471346559979500,13.0319794921875,-0.7633819580078125,0.9839630126953125,-0.4964141845703125
1760471346569941500,13.04194140625,-0.8517608642578125,1.0061492919921875,-0.6623077392578125
1760471346579903500,13.051903564453125,-0.926849365234375,1.0105133056640625,-0.836639404296875
1760471346589865500,13.061865478515625,-0.9729461669921875,1.040191650390625,-1.0064697265625
1760471346599827500,13.071827392578125,-0.988494873046875,1.050201416015625,-1.1381683349609375
1760471346609789700,13.081789794921875,-0.9701385498046875,1.04327392578125,-1.2775726318359375
1760471346619751400,13.09175146484375,-0.9395751953125,1.020721435546875,-1.404266357421875
1760471346629713400,13.10171337890625,-0.93048095703125,0.9857940673828125,-1.4961090087890625
1760471346639675600,13.111675537109376,-0.95904541015625,0.9285736083984375,-1.573486328125
1760471346649637400,13.121637451171875,-1.0227508544921875,0.8607330322265625,-1.680755615234375
1760471346659599600,13.131599609375,-1.109832763671875,0.841827392578125,-1.8176116943359375
1760471346669561600,13.1415615234375,-1.21112060546875,0.8563690185546875,-1.9149169921875
1760471346679523600,13.151523681640626,-1.3160552978515625,0.9114227294921875,-1.9492034912109375
1760471346948498400,13.42049853515625,-1.0334930419921875,1.5905914306640625,-1.6856842041015625
1760471346958460700,13.430460693359375,-1.08123779296875,1.780487060546875,-1.1610260009765625
1760471346968422400,13.44042236328125,-1.111663818359375,1.8037261962890625,-0.7449951171875
1760471346978384400,13.45038427734375,-1.1207427978515625,1.7046356201171875,-0.5397186279296875
1760471346988346600,13.4603466796875,-1.059051513671875,1.5420379638671875,-0.36212158203125
1760471346998308400,13.470308349609375,-1.0296783447265625,1.42822265625,-0.2050323486328125
1760471347008270600,13.4802705078125,-1.02435302734375,1.278350830078125,0.0802154541015625
1760471347018232600,13.490232666015626,-0.9552764892578125,1.1521148681640625,0.314300537109375
1760471347028194300,13.5001943359375,-0.8032073974609375,1.1135406494140625,0.43524169921875
1760471347038156500,13.510156494140626,-0.5772705078125,1.0273590087890625,0.5445098876953125
1760471347048118500,13.520118408203125,-0.3588104248046875,0.9150238037109375,0.5938720703125
1760471347058080500,13.53008056640625,-0.2135009765625,0.794952392578125,0.6030120849609375
1760471347068042500,13.54004248046875,-0.1160736083984375,0.6916351318359375,0.6331329345703125
1760471347078004500,13.55000439453125,-0.0521087646484375,0.6552886962890625,0.64288330078125
1760471347087966500,13.559966552734375,-0.040283203125,0.636566162109375,0.6507110595703125
1760471347097928400,13.569928466796876,-0.0843353271484375,0.6433258056640625,0.6435089111328125
1760471347107890700,13.579890625,-0.1752777099609375,0.631072998046875,0.6905517578125
1760471347117852400,13.589852294921876,-0.3609466552734375,0.606048583984375,0.648681640625
1760471347127814700,13.599814697265625,-0.52630615234375,0.6017303466796875,0.6085662841796875
1760471347137776600,13.609776611328124,-0.6380462646484375,0.6063232421875,0.5680999755859375
1760471347147738400,13.61973828125,-0.7103729248046875,0.6303558349609375,0.5006103515625
1760471347157700600,13.62970068359375,-0.72076416015625,0.666656494140625,0.4404296875
1760471347167662600,13.63966259765625,-0.707611083984375,0.7198486328125,0.3521270751953125
1760471347177624600,13.64962451171875,-0.7135162353515625,0.7897186279296875,0.2201690673828125
1760471347187582500,13.65958251953125,-0.7304840087890625,0.86260986328125,0.054595947265625
1760471347197544400,13.66954443359375,-0.7410125732421875,0.91143798828125,-0.13116455078125
1760471347207506400,13.67950634765625,-0.7717742919921875,0.958251953125,-0.298431396484375
1760471347217468400,13.689468505859375,-0.799896240234375,1.0313873291015625,-0.4393768310546875
1760471347227430700,13.6994306640625,-0.87451171875,1.052459716796875,-0.5889434814453125
1760471347237392400,13.709392333984376,-0.9793243408203125,1.052154541015625,-0.7851104736328125
1760471347247355400,13.71935546875,-1.0846710205078125,1.08721923828125,-0.9417266845703125
1760471347257317600,13.729317626953126,-1.191009521484375,1.1280670166015625,-1.0680389404296875
1760471347267279600,13.739279541015625,-1.2764739990234375,1.1513824462890625,-1.2869415283203125
1760471347277241300,13.749241455078124,-1.3459014892578125,1.124176025390625,-1.507354736328125
1760471347287203600,13.75920361328125,-1.408599853515625,1.004119873046875,-1.6318359375
1760471347297165600,13.76916552734375,-1.4679718017578125,0.9457244873046875,-1.7735443115234375
1760471347307127600,13.77912744140625,-1.4912872314453125,0.8618316650390625,-1.868988037109375
1760471347317089500,13.789089599609374,-1.469757080078125,0.7979278564453125,-1.9705657958984375
1760471347327051500,13.799051513671875,-1.413421630859375,0.807464599609375,-2.0839385986328125
1760471347566139400,14.038139404296874,-0.8542327880859375,1.0404510498046875,-1.8061370849609375
1760471347576101600,14.0481015625,-0.8552703857421875,1.2144012451171875,-1.510711669921875
1760471347586063600,14.058063720703124,-0.9127349853515625,1.26641845703125,-1.2167816162109375
1760471347596025300,14.068025390625,-0.9714202880859375,1.252166748046875,-1.03912353515625
1760471347605987600,14.077987548828125,-0.974090576171875,1.156890869140625,-0.971038818359375
1760471347615949600,14.087949462890625,-0.918975830078125,1.126922607421875,-0.9357757568359375
1760471347625911600,14.09791162109375,-0.819305419921875,1.0602264404296875,-0.815093994140625
1760471347635873500,14.10787353515625,-0.746368408203125,1.0689239501953125,-0.6870880126953125
1760471347645835500,14.11783544921875,-0.758941650390625,1.0938873291015625,-0.510101318359375
1760471347655797500,14.127797607421876,-0.8267364501953125,1.047607421875,-0.2805328369140625
1760471347665759500,14.137759521484375,-0.858489990234375,1.008087158203125,-0.132110595703125
1760471347675721500,14.147721435546876,-0.8146209716796875,0.97418212890625,0.0523529052734375
1760471347685683500,14.157683349609375,-0.7178192138671875,0.932342529296875,0.2181549072265625
1760471347695645700,14.167645751953126,-0.610260009765625,0.8914642333984375,0.33203125
1760471347705607400,14.177607421875,-0.550628662109375,0.877655029296875,0.4245758056640625
1760471347715569400,14.1875693359375,-0.5160064697265625,0.845947265625,0.5350189208984375
1760471347725531600,14.19753173828125,-0.4738006591796875,0.7631683349609375,0.6733245849609375
1760471347735493400,14.207493408203124,-0.4608001708984375,0.70489501953125,0.7088470458984375
1760471347745455600,14.21745556640625,-0.492645263671875,0.6327972412109375,0.70892333984375
1760471347755417600,14.22741748046875,-0.551300048828125,0.54852294921875,0.6853485107421875
1760471347765379300,14.23737939453125,-0.595550537109375,0.489959716796875,0.634307861328125
1760471347775341600,14.247341552734374,-0.632965087890625,0.441986083984375,0.5859375
1760471347785303600,14.257303466796875,-0.664337158203125,0.41058349609375,0.517242431640625
1760471347795265500,14.267265625,-0.67108154296875,0.41607666015625,0.40777587890625
1760471347805227500,14.2772275390625,-0.6490478515625,0.4262542724609375,0.310150146484375
1760471347815189500,14.287189453125,-0.6158599853515625,0.4478607177734375,0.1996917724609375
1760471347825151500,14.2971513671875,-0.586395263671875,0.4768218994140625,0.0727386474609375
1760471347835113500,14.307113525390625,-0.5611419677734375,0.4898529052734375,-0.0349578857421875
1760471347845075700,14.31707568359375,-0.5483551025390625,0.5363616943359375,-0.1360321044921875
1760471347855037400,14.327037353515625,-0.5533447265625,0.5800628662109375,-0.1945037841796875
1760471347864999400,14.33699951171875,-0.6015625,0.628631591796875,-0.2552337646484375
1760471347874961700,14.346961669921875,-0.7031097412109375,0.6861724853515625,-0.372833251953125
1760471347884923400,14.35692333984375,-0.81866455078125,0.7369537353515625,-0.53997802734375
1760471347894885600,14.3668857421875,-0.8921051025390625,0.7741546630859375,-0.7203826904296875
1760471347904847600,14.37684765625,-0.92901611328125,0.7832489013671875,-0.9160614013671875
1760471347914809300,14.386809326171875,-0.9295654296875,0.773223876953125,-1.0696563720703125
1760471347924771600,14.396771484375,-0.933074951171875,0.7378692626953125,-1.221435546875
1760471347934733600,14.406733642578125,-0.919464111328125,0.6955108642578125,-1.3803253173828125
1760471347944695600,14.416695556640626,-0.9042510986328125,0.710357666015625,-1.478851318359375
1760471347954657500,14.426657470703125,-0.916351318359375,0.732818603515625,-1.5108489990234375
1760471347964619500,14.43661962890625,-0.9478302001953125,0.8067474365234375,-1.6061248779296875
1760471347974581500,14.44658154296875,-0.968994140625,0.8469390869140625,-1.6847991943359375
1760471347984543500,14.45654345703125,-0.99932861328125,0.8375244140625,-1.768280029296875
1760471347994505700,14.466505615234375,-1.0438232421875,0.8285980224609375,-1.9065399169921875
1760471348004467500,14.476467529296874,-1.0852813720703125,0.7696075439453125,-2.0388031005859375
1760471348203711700,14.675711669921874,-0.89447021484375,0.694244384765625,-1.8680572509765625
1760471348213673500,14.685673583984375,-0.9794464111328125,0.7842559814453125,-1.6935577392578125
1760471348223635700,14.6956357421875,-1.01763916015625,0.8033905029296875,-1.555023193359375
1760471348233597700,14.70559765625,-1.01513671875,0.7044525146484375,-1.562652587890625
1760471348243559700,14.7155595703125,-0.9497222900390625,0.5585784912109375,-1.6996002197265625
1760471348253521700,14.725521728515625,-0.8656463623046875,0.4137725830078125,-1.79473876953125
1760471348263483600,14.735483642578124,-0.8164520263671875,0.3736724853515625,-1.8253631591796875
1760471348273445600,14.745445556640625,-0.8348846435546875,0.5511932373046875,-1.8034210205078125
1760471348283407600,14.75540771484375,-0.89703369140625,0.780487060546875,-1.578369140625
1760471348293369900,14.765369873046875,-0.9242401123046875,0.963714599609375,-1.25238037109375
1760471348303331600,14.77533154296875,-0.9305572509765625,1.0878753662109375,-1.0102386474609375
1760471348313293600,14.78529345703125,-0.9039459228515625,1.1223907470703125,-0.80682373046875
1760471348323255600,14.795255615234375,-0.8994598388671875,1.0030517578125,-0.66375732421875
1760471348333217500,14.805217529296876,-0.83697509765625,0.8665008544921875,-0.5543365478515625
1760471348343179800,14.8151796875,-0.7396697998046875,0.735137939453125,-0.51348876953125
1760471348353141500,14.8251416015625,-0.6438751220703125,0.6492919921875,-0.4843292236328125
1760471348363103700,14.835103759765625,-0.5722808837890625,0.5576324462890625,-0.3542327880859375
1760471348373065700,14.845065673828126,-0.5242767333984375,0.4891510009765625,-0.22125244140625
1760471348383027500,14.85502734375,-0.4922637939453125,0.50396728515625,-0.091644287109375
1760471348392989700,14.86498974609375,-0.442230224609375,0.532012939453125,0.08966064453125
1760471348402951700,14.87495166015625,-0.361175537109375,0.5696258544921875,0.2493438720703125
1760471348412913700,14.88491357421875,-0.276092529296875,0.59320068359375,0.382568359375
1760471348422875600,14.894875732421875,-0.1926422119140625,0.608489990234375,0.5094757080078125
1760471348432837600,14.904837646484374,-0.1502227783203125,0.6161346435546875,0.6198272705078125
1760471348442799600,14.914799560546875,-0.135711669921875,0.586395263671875,0.6984405517578125
1760471348452761600,14.92476171875,-0.1400146484375,0.5541839599609375,0.71630859375
1760471348462723800,14.934723876953125,-0.1764373779296875,0.52880859375,0.715301513671875
1760471348472685600,14.944685546875,-0.25897216796875,0.4981536865234375,0.713470458984375
1760471348482646800,14.954646728515625,-0.3730621337890625,0.461944580078125,0.6819000244140625
1760471348492609800,14.96460986328125,-0.480621337890625,0.42938232421875,0.5930633544921875
1760471348502571500,14.974571533203125,-0.5856170654296875,0.4073944091796875,0.4481658935546875
1760471348512533800,14.98453369140625,-0.69110107421875,0.376434326171875,0.280181884765625
1760471348522495700,14.994495849609375,-0.755157470703125,0.36981201171875,0.1552581787109375
1760471348532457500,15.00445751953125,-0.8040771484375,0.3843536376953125,0.0395355224609375
1760471348542419700,15.014419677734375,-0.8243408203125,0.4456787109375,-0.1236114501953125
1760471348552381700,15.024381591796875,-0.828338623046875,0.4937286376953125,-0.2134857177734375
1760471348562343700,15.03434375,-0.8140716552734375,0.5558013916015625,-0.26226806640625
1760471348572305700,15.0443056640625,-0.8007965087890625,0.6616668701171875,-0.37359619140625
1760471348582266600,15.0542666015625,-0.76947021484375,0.73223876953125,-0.6045684814453125
1760471348592229600,15.064229736328125,-0.7303009033203125,0.7387237548828125,-0.8469085693359375
1760471348602191600,15.074191650390626,-0.6839599609375,0.659637451171875,-1.03369140625
1760471348612152600,15.084152587890625,-0.6356353759765625,0.5698699951171875,-1.18194580078125
1760471348622114600,15.094114501953126,-0.5982666015625,0.52484130859375,-1.289947509765625
1760471348632076800,15.104076904296875,-0.62030029296875,0.532684326171875,-1.340240478515625
1760471348642039600,15.11403955078125,-0.7485504150390625,0.5516510009765625,-1.373077392578125
1760471348652000800,15.124000732421875,-0.942962646484375,0.582489013671875,-1.4612579345703125
1760471348661962800,15.133962646484376,-1.1472625732421875,0.597625732421875,-1.5699005126953125
1760471348671924500,15.143924560546875,-1.303009033203125,0.5515594482421875,-1.65216064453125
1760471348681886700,15.15388671875,-1.3684234619140625,0.5724945068359375,-1.7703399658203125
1760471348691848700,15.1638486328125,-1.3520050048828125,0.6444549560546875,-1.869110107421875
1760471348701810700,15.173810791015624,-1.2733306884765625,0.6717681884765625,-1.8908538818359375
1760471348711772700,15.183772705078125,-1.184967041015625,0.596588134765625,-1.9389190673828125
1760471348721734700,15.193734619140624,-1.108856201171875,0.45867919921875,-2.08721923828125
