time,seconds_elapsed,z,y,x
1760471333559417600,0.03141748046875,-0.004486361052840948,-0.18272879719734192,-0.0015667376574128866
1760471333569379600,0.041379638671875,-0.007011836860328913,-0.13830967247486115,-0.05919674411416054
1760471333579342600,0.051342529296875,0.004861334338784218,-0.10750888288021088,-0.10255806893110275
1760471333589304300,0.06130419921875,0.0085466168820858,-0.10326060652732849,-0.10319189727306366
1760471333599266600,0.0712666015625,0.0026706180069595575,-0.10726334154605865,-0.07543430477380753
1760471333609228500,0.081228515625,-0.0022772690281271935,-0.08367838710546494,-0.03928828239440918
1760471333619190500,0.0911904296875,-0.010672884061932564,-0.027831630781292915,-0.0067239492200315
1760471333629153500,0.101153564453125,-0.01685594581067562,-0.0021225393284112215,0.02010473608970642
1760471333639115500,0.111115478515625,-0.010121610015630722,-0.005144960712641478,0.031151793897151947
1760471333649077500,0.121077392578125,-0.0002388855500612408,-0.013114736415445805,0.034801654517650604
1760471333659039500,0.13103955078125,0.004571315832436085,-0.04011546075344086,0.03893275186419487
1760471333669001500,0.14100146484375,0.003924966789782047,-0.05308106169104576,0.03482216224074364
1760471333678964700,0.15096484375,-0.003132676472887397,-0.06383384019136429,0.013231382705271244
1760471333688926500,0.160926513671875,-0.003245061729103327,-0.06750287860631943,-0.0276848915964365
1760471333698888400,0.170888427734375,0.005625661462545395,-0.05685129761695862,-0.07345131039619446
1760471333708850700,0.1808505859375,0.009946107864379883,-0.039740487933158875,-0.10525292158126831
1760471333718812400,0.1908125,0.012686500325798988,-0.042700592428445816,-0.12003666162490845
1760471333728775400,0.200775390625,0.012291553430259228,-0.04280312359333038,-0.12987171113491058
1760471333738737700,0.210737548828125,0.009807356633245945,-0.04386226460337639,-0.1244891956448555
1760471333748699400,0.220699462890625,0.003724697045981884,-0.04416932538151741,-0.11026418954133987
1760471333758661600,0.23066162109375,-0.0029739518649876118,-0.024036094546318054,-0.08311618864536285
1760471333768623600,0.24062353515625,-0.007961253635585308,0.0014671353856101632,-0.05693598836660385
1760471333778586600,0.250586669921875,-0.00640703272074461,0.02496234141290188,-0.04402711242437363
1760471333788548400,0.26054833984375,-0.0054240599274635315,0.03465118631720543,-0.0400635302066803
1760471333798510600,0.270510498046875,-0.005007009021937847,0.03937670215964317,-0.04746711626648903
1760471333808472600,0.28047265625,-0.0031467911321669817,0.04782957211136818,-0.06645918637514114
1760471333818434600,0.2904345703125,-0.007810784969478846,0.038541801273822784,-0.09526872634887695
1760471333828397600,0.3003974609375,-0.006868026219308376,0.009612413123250008,-0.13263900578022003
1760471333838359600,0.310359619140625,0.0009853695519268513,-0.0022708773612976074,-0.17614519596099854
1760471333848321500,0.320321533203125,0.0028391960076987743,0.002630936913192272,-0.21282891929149628
1760471333858283500,0.330283447265625,-0.03548502177000046,-0.06600511819124222,-0.2877526879310608
1760471333868245500,0.34024560546875,-0.019931895658373833,-0.13396072387695312,-0.33682650327682495
1760471333878207500,0.35020751953125,0.0037984666414558887,-0.15162335336208344,-0.36198723316192627
1760471333888170500,0.36017041015625,0.005195028148591518,-0.1435190886259079,-0.3754862844944
1760471333898132500,0.370132568359375,0.004216050263494253,-0.10316739976406097,-0.3768104016780853
1760471333908094700,0.3800947265625,-0.003879426745697856,-0.03351801261305809,-0.3684043884277344
1760471333918056400,0.390056396484375,-0.012824186123907566,0.014723818749189377,-0.3520105183124542
1760471333928018700,0.400018798828125,-0.01275600865483284,0.04893824830651283,-0.3271038234233856
1760471333937981700,0.409981689453125,-0.012094479985535145,0.07432056963443756,-0.30559054017066956
1760471333947943400,0.419943359375,-0.013996508903801441,0.08861561864614487,-0.29834115505218506
1760471333957905400,0.429905517578125,-0.019756926223635674,0.09871139377355576,-0.31080448627471924
1760471333967867600,0.43986767578125,-0.020867731422185898,0.07284224778413773,-0.34938010573387146
1760471333977829400,0.449829345703125,-0.013217801228165627,0.03840464726090431,-0.39643949270248413
1760471333987792400,0.45979248046875,-0.0023928501177579165,0.025399100035429,-0.44604218006134033
1760471333997754600,0.469754638671875,0.001805623178370297,0.03544720634818077,-0.4858143627643585
1760471334007716400,0.47971630859375,-0.002776079112663865,0.044566135853528976,-0.5125918984413147
1760471334017678600,0.4896787109375,-0.004068244714289904,0.03147563338279724,-0.5336290597915649
1760471334027640600,0.499640625,-0.004954278469085693,0.008824383839964867,-0.5369888544082642
1760471334037603600,0.509603515625,0.000988032785244286,0.013872938230633736,-0.5286015272140503
1760471334047565600,0.519565673828125,0.00242161238566041,0.040235571563243866,-0.5102925300598145
1760471334057527600,0.529527587890625,0.007022755686193705,0.07955421507358551,-0.4877220094203949
1760471334067489500,0.539489501953125,0.0009805759182199836,0.09711562842130661,-0.4730263948440552
1760471334077451500,0.549451416015625,-0.011482751928269863,0.12334563583135605,-0.4695073068141937
1760471334087414500,0.55941455078125,-0.02040913514792919,0.13294287025928497,-0.4739515781402588
1760471334097376500,0.56937646484375,-0.02118890918791294,0.1138211041688919,-0.4870399534702301
1760471334107338500,0.57933837890625,-0.01582956314086914,0.09361144155263901,-0.5220328569412231
1760471334117300500,0.589300537109375,-0.014213557355105877,0.10129652917385101,-0.5828219056129456
1760471334127262700,0.5992626953125,-0.012679575942456722,0.10738930851221085,-0.6479588150978088
1760471334137225700,0.609225830078125,-0.015806127339601517,0.08786514401435852,-0.7141993641853333
1760471334147187500,0.6191875,-0.030287597328424454,0.0750979483127594,-0.7910903692245483
1760471334157149400,0.6291494140625,-0.042874228209257126,0.09864774346351624,-0.8931317925453186
1760471334167111700,0.639111572265625,-0.038972966372966766,0.14946724474430084,-1.041847825050354
1760471334177073700,0.64907373046875,-0.0537995807826519,0.20484395325183868,-1.2085320949554443
1760471334187036000,0.659035888671875,-0.06847493350505829,0.23621518909931183,-1.3454681634902954
1760471334196999000,0.6689990234375,-0.08727578073740005,0.27386990189552307,-1.411698579788208
1760471334206960600,0.678960693359375,-0.119529590010643,0.3073008358478546,-1.4090218544006348
1760471334216923000,0.6889228515625,-0.12694942951202393,0.26862984895706177,-1.3341121673583984
1760471334226884900,0.698884765625,-0.10857441276311874,0.17734335362911224,-1.2123883962631226
1760471334236846600,0.7088466796875,-0.07733899354934692,0.07104035466909409,-1.0710091590881348
1760471334246809600,0.7188095703125,-0.05790457874536514,0.0006207828409969807,-0.9173564314842224
1760471334256771800,0.728771728515625,-0.04845035821199417,0.005133242812007666,-0.7650878429412842
1760471334266733800,0.73873388671875,-0.032526783645153046,0.05402834713459015,-0.6395783424377441
1760471334276695800,0.74869580078125,-0.020183032378554344,0.08485257625579834,-0.5430313348770142
1760471334286657800,0.75865771484375,-0.015968846157193184,0.08288130164146423,-0.4477274417877197
1760471334296620800,0.768620849609375,-0.022281603887677193,0.06822273135185242,-0.33623313903808594
1760471334306582800,0.778582763671875,-0.024223580956459045,0.0509827584028244,-0.20821605622768402
1760471334316544800,0.788544677734375,-0.017647171393036842,0.029740585014224052,-0.06913166493177414
1760471334326506800,0.7985068359375,-0.010374343954026699,-0.007559649180620909,0.08861801773309708
1760471334336468700,0.80846875,-0.004237355664372444,-0.044930458068847656,0.2799094021320343
1760471334346431700,0.818431640625,0.0021401161793619394,-0.08656498789787292,0.5236102342605591
1760471334356393700,0.828393798828125,0.01811428926885128,-0.13545049726963043,0.800303041934967
1760471334366355700,0.838355712890625,0.02063070982694626,-0.13550376892089844,1.1268508434295654
1760471334376317700,0.848317626953125,0.03542963042855263,-0.1422567367553711,1.4936338663101196
1760471334386280000,0.858280029296875,0.0743490681052208,-0.20313580334186554,1.830269694328308
1760471334396241700,0.86824169921875,0.16453461349010468,-0.2885180711746216,2.0899765491485596
1760471334406204700,0.87820458984375,0.14691434800624847,-0.3775555491447449,2.2979795932769775
1760471334416166700,0.888166748046875,0.10590672492980957,-0.41705581545829773,2.408874750137329
1760471334426129000,0.89812890625,0.10692112147808075,-0.43297937512397766,2.405866861343384
1760471334436090600,0.908090576171875,0.10193994641304016,-0.49623000621795654,2.3337161540985107
1760471334446052900,0.918052978515625,0.08519744873046875,-0.5104227662086487,2.236490249633789
1760471334456016000,0.928015869140625,0.060924071818590164,-0.46394822001457214,2.1462244987487793
1760471334465977600,0.9379775390625,0.029153091832995415,-0.35939091444015503,2.0872702598571777
1760471334475939800,0.94793994140625,0.001020523370243609,-0.24771127104759216,2.038353443145752
1760471334485901800,0.95790185546875,-0.010065683163702488,-0.1761302947998047,1.9849498271942139
1760471334495863600,0.967863525390625,-0.019690880551934242,-0.14580939710140228,1.9290825128555298
1760471334505826800,0.977826904296875,-0.02551175095140934,-0.09196934103965759,1.8286161422729492
1760471334515788800,0.987788818359375,-0.04981229826807976,-0.00634924229234457,1.7000770568847656
1760471334525750800,0.997750732421875,-0.0894840732216835,0.061773352324962616,1.6079013347625732
1760471334535712800,1.007712646484375,-0.07919202744960785,0.04688787832856178,1.4970879554748535
1760471334545674800,1.0176748046875,-0.03319710120558739,-0.045527003705501556,1.3248323202133179
1760471334555637000,1.027636962890625,0.01992950029671192,-0.1041993722319603,1.1051580905914307
1760471334565599700,1.037599853515625,0.05535753071308136,-0.13158784806728363,0.8480434417724609
1760471334575561700,1.047561767578125,0.06157201901078224,-0.11312682181596756,0.5811086893081665
1760471334585524000,1.05752392578125,0.05357054993510246,-0.07052662968635559,0.33972668647766113
1760471334595485700,1.067485595703125,0.0399940200150013,-0.06506714969873428,0.16513089835643768
1760471334605447700,1.07744775390625,0.026200978085398674,-0.058513909578323364,0.04653368145227432
1760471334615410700,1.08741064453125,0.012567989528179169,-0.04770467057824135,-0.030411435291171074
1760471334625373000,1.097373046875,-0.015856195241212845,-0.09913856536149979,-0.09044254571199417
1760471334635334700,1.107334716796875,-0.008790828287601471,-0.14568795263767242,-0.10286059975624084
1760471334645297000,1.117296875,0.018751850351691246,-0.14702726900577545,-0.07526199519634247
1760471334655259000,1.1272587890625,0.03401203081011772,-0.1232585534453392,-0.03639023005962372
1760471334665220900,1.137220947265625,0.028733909130096436,-0.07167045772075653,-0.0012279836228117347
1760471334675183900,1.147183837890625,0.012780243530869484,0.011276623234152794,0.036741770803928375
1760471334685145900,1.157145751953125,-0.0005976133397780359,0.07666414976119995,0.0837755873799324
1760471334695107600,1.167107666015625,-0.00021971078240312636,0.04012211784720421,0.10075297951698303
1760471334705069800,1.17706982421875,0.024626251310110092,-0.0031497206073254347,0.07715284079313278
1760471334715031800,1.18703173828125,0.055028896778821945,-0.03568103164434433,0.015633555129170418
1760471334724993800,1.196993896484375,0.088614821434021,-0.03105352260172367,-0.08332604914903641
1760471334734956800,1.206956787109375,0.13845907151699066,-0.015737950801849365,-0.18839547038078308
1760471334744918800,1.216918701171875,0.20341703295707703,-0.05193190649151802,-0.2731606960296631
1760471334754880800,1.226880859375,0.3059268891811371,-0.04107952490448952,-0.33465680480003357
1760471334764842800,1.2368427734375,0.38102883100509644,-0.004211523104459047,-0.42964377999305725
1760471334774804700,1.2468046875,0.5436909794807434,-0.10136444121599197,-0.5909677147865295
1760471334784767700,1.256767822265625,0.6151824593544006,0.09395312517881393,-0.829278290271759
1760471334794729700,1.266729736328125,0.3528731167316437,0.404674768447876,-1.0626699924468994
1760471334804691700,1.276691650390625,0.07260256260633469,0.6222673058509827,-1.159608006477356
1760471334814654000,1.286654052734375,-0.10944819450378418,0.6387456059455872,-1.172011137008667
1760471334824615700,1.29661572265625,-0.11509143561124802,0.4485578238964081,-1.1188629865646362
1760471334834578000,1.306577880859375,-0.010483533143997192,0.14903075993061066,-1.055106282234192
1760471334844541000,1.316541015625,0.09766291081905365,-0.07610408961772919,-1.011066198348999
1760471334854502700,1.326502685546875,0.09644957631826401,-0.3029303252696991,-0.9437800645828247
1760471334864464600,1.336464599609375,-0.06882832944393158,-0.6512347459793091,-0.8194242715835571
1760471334874427000,1.346427001953125,-0.167925626039505,-0.7230900526046753,-0.6955676078796387
1760471334884388600,1.356388671875,-0.13640178740024567,-0.6667327880859375,-0.6122026443481445
1760471334894350800,1.366350830078125,-0.06317470967769623,-0.628604531288147,-0.5792388916015625
1760471334904313900,1.37631396484375,-0.03309457004070282,-0.5380647778511047,-0.5260752439498901
1760471334914275800,1.38627587890625,-0.008078166283667088,-0.0965433195233345,-0.46543267369270325
1760471334924237800,1.39623779296875,0.0073196981102228165,0.40721091628074646,-0.4604001045227051
1760471334934199800,1.40619970703125,0.01278823334723711,0.9155194163322449,-0.5518775582313538
1760471334944161800,1.416161865234375,0.134974867105484,1.0214698314666748,-0.6065328121185303
1760471334954124800,1.426124755859375,0.42729780077934265,0.7575265765190125,-0.6507407426834106
1760471334964086800,1.436086669921875,0.7697145342826843,0.32024991512298584,-0.6921669840812683
1760471334974048800,1.446048828125,0.8963502645492554,-0.12873055040836334,-0.7158001661300659
1760471334984010800,1.4560107421875,0.7206735014915466,-0.5085676312446594,-0.7831818461418152
1760471334993972700,1.46597265625,0.4317825734615326,-0.7005248069763184,-0.8793933391571045
1760471335003935000,1.47593505859375,0.21620208024978638,-0.8416081666946411,-1.001118779182434
1760471335013897700,1.485897705078125,0.15752971172332764,-1.0499699115753174,-1.1477001905441284
1760471335023859700,1.495859619140625,0.19636578857898712,-1.2193584442138672,-1.3032442331314087
1760471335033821700,1.50582177734375,0.2589351534843445,-0.5452334880828857,-1.548596739768982
1760471335043783700,1.51578369140625,-0.01683943346142769,0.23747646808624268,-1.5715819597244263
1760471335053745700,1.52574560546875,-0.09908104687929153,0.606186032295227,-1.239174723625183
1760471335063708000,1.5357080078125,0.28300002217292786,0.8917645215988159,-0.7526016235351562
1760471335073671000,1.5456708984375,0.9931601285934448,1.4710779190063477,-0.4051722586154938
1760471335083632600,1.555632568359375,1.6171635389328003,1.498300313949585,-0.1687179058790207
1760471335093595000,1.565594970703125,2.003413438796997,1.4255701303482056,0.01552383229136467
1760471335103556900,1.575556884765625,2.11549973487854,1.42845618724823,0.2908440828323364
1760471335113518600,1.5855185546875,2.027864694595337,1.229098916053772,0.6322195529937744
1760471335123480800,1.595480712890625,1.8310201168060303,0.7141039967536926,0.9521692991256714
1760471335133443800,1.60544384765625,1.5541819334030151,-0.08196410536766052,1.187726378440857
1760471335143405600,1.615405517578125,1.0825557708740234,-0.831753671169281,1.361283779144287
1760471335153367800,1.625367919921875,0.40200257301330566,-1.491742730140686,1.4751784801483154
1760471335163329800,1.635329833984375,-0.408105731010437,-2.107494592666626,1.5406184196472168
1760471335173292300,1.645292236328125,-1.2174310684204102,-2.5511631965637207,1.507627248764038
1760471335183254000,1.65525390625,-1.945783019065857,-2.8684816360473633,1.3609163761138916
1760471335193217000,1.665217041015625,-2.5138916969299316,-3.022260904312134,1.044917345046997
1760471335203179000,1.675178955078125,-3.009317636489868,-2.62221622467041,0.7138280868530273
1760471335213141000,1.68514111328125,-3.467440128326416,-2.0034425258636475,0.5657259821891785
1760471335223103000,1.69510302734375,-3.7793524265289307,-1.66797935962677,0.763759195804596
1760471335233065200,1.705065185546875,-4.011891841888428,-1.7592130899429321,1.2675493955612183
1760471335243028200,1.7150283203125,-4.208181858062744,-2.4249203205108643,1.9855154752731323
1760471335252990000,1.724989990234375,-4.431944370269775,-3.5030994415283203,2.7918660640716553
1760471335262952200,1.7349521484375,-4.569148540496826,-4.62446403503418,3.5405306816101074
1760471335272914200,1.7449140625,-4.595133304595947,-5.336719989776611,4.219947814941406
1760471335282876000,1.7548759765625,-4.501246929168701,-5.574999809265137,4.713364124298096
1760471335292838100,1.764838134765625,-4.264297962188721,-5.60828161239624,4.928105354309082
1760471335302801200,1.77480126953125,-3.9249303340911865,-5.298995018005371,4.845188617706299
1760471335312763000,1.784762939453125,-3.6643712520599365,-4.559194564819336,4.410983562469482
1760471335322725000,1.79472509765625,-3.296405076980591,-3.4982566833496094,3.6482930183410645
1760471335332687000,1.80468701171875,-2.757256031036377,-2.2516074180603027,2.722416639328003
1760471335342649000,1.814649169921875,-2.1537060737609863,-1.0281593799591064,1.769777536392212
1760471335352611000,1.824611083984375,-1.5489336252212524,-0.07490167021751404,0.8783842921257019
1760471335362573000,1.834572998046875,-0.9477183818817139,0.5379428267478943,0.08411753922700882
1760471335372536000,1.8445361328125,-0.12285002321004868,0.8343518376350403,-0.6433842778205872
1760471335382498000,1.854498046875,0.7558024525642395,1.2306970357894897,-1.0395755767822266
1760471335392460000,1.8644599609375,1.6213183403015137,1.296791434288025,-1.096494197845459
1760471335402422000,1.874422119140625,2.2210466861724854,1.2747657299041748,-1.0758280754089355
1760471335412384000,1.884384033203125,2.8459157943725586,1.1056534051895142,-1.2208385467529297
1760471335422346200,1.89434619140625,3.3682003021240234,0.8476556539535522,-1.5309346914291382
1760471335432309200,1.904309326171875,3.815808057785034,0.6135275959968567,-1.8443019390106201
1760471335442271000,1.91427099609375,4.0978169441223145,0.28377339243888855,-2.0603551864624023
1760471335452233000,1.92423291015625,4.278289794921875,0.08192069828510284,-2.1747021675109863
1760471335462195200,1.9341953125,4.481061935424805,-0.07470246404409409,-2.265423059463501
1760471335472157000,1.944156982421875,4.84764289855957,-0.15607109665870667,-2.4364683628082275
1760471335482119200,1.954119140625,5.366964817047119,-0.057204168289899826,-2.6060779094696045
1760471335492082200,1.964082275390625,6.00186014175415,0.2103995829820633,-2.70782470703125
1760471335502044000,1.9740439453125,6.4745073318481445,0.4866444766521454,-2.782615900039673
1760471335512006100,1.984006103515625,7.040871620178223,0.8738840818405151,-2.8380227088928223
1760471335521968000,1.993968017578125,7.49514102935791,1.2425299882888794,-2.8584282398223877
1760471335531929900,2.003929931640625,7.805337905883789,1.363667368888855,-2.9193155765533447
1760471335541892000,2.01389208984375,7.957566738128662,1.707880973815918,-3.0778205394744873
1760471335551855000,2.023855224609375,7.947357654571533,2.4337236881256104,-3.3001797199249268
1760471335561817000,2.033817138671875,7.80911922454834,3.1802897453308105,-3.5196239948272705
1760471335571779000,2.043779052734375,7.408062934875488,3.7683627605438232,-3.642651319503784
1760471335581741000,2.053740966796875,6.731656074523926,3.9710114002227783,-3.5034782886505127
1760471335591703300,2.063703369140625,6.002118110656738,3.3877017498016357,-2.9887709617614746
1760471335601665000,2.0736650390625,5.302886486053467,2.3747658729553223,-2.1102006435394287
1760471335611628000,2.0836279296875,4.785530090332031,1.4705919027328491,-1.134210467338562
1760471335621590000,2.093590087890625,4.453665256500244,1.0648788213729858,-0.25481337308883667
1760471335631552000,2.103552001953125,4.131599426269531,0.6197583079338074,0.3440585732460022
1760471335641514000,2.113513916015625,3.665179967880249,0.27482783794403076,0.5736432671546936
1760471335651476200,2.123476318359375,3.0483603477478027,0.2356676459312439,0.49471813440322876
1760471335661438000,2.13343798828125,2.3737964630126953,0.3204882740974426,0.22840307652950287
1760471335671401000,2.14340087890625,1.7644670009613037,0.42397019267082214,-0.05438094958662987
1760471335681363200,2.15336328125,1.1490285396575928,0.6335745453834534,-0.22434015572071075
1760471335691325000,2.163324951171875,0.5820399522781372,0.869642972946167,-0.2322593331336975
1760471335701287000,2.173286865234375,-0.037146568298339844,1.0391592979431152,-0.1104748472571373
1760471335711249200,2.183249267578125,-0.7525411248207092,0.9685735702514648,0.10600606352090836
1760471335721211000,2.1932109375,-1.5008281469345093,0.6449339985847473,0.39395636320114136
1760471335731174000,2.203173828125,-2.2025012969970703,0.08354336023330688,0.7409332394599915
1760471335741136100,2.21313623046875,-2.896929979324341,-0.599763035774231,1.0835856199264526
1760471335751098000,2.22309814453125,-3.5616021156311035,-1.346946120262146,1.3666045665740967
1760471335761060000,2.23306005859375,-4.148682117462158,-2.0585696697235107,1.5412298440933228
1760471335771022000,2.24302197265625,-4.688981056213379,-2.540523052215576,1.644774079322815
1760471335780984000,2.252984130859375,-5.2517313957214355,-2.921267509460449,1.697420597076416
1760471335790946000,2.262946044921875,-5.810853481292725,-3.1858317852020264,1.7368403673171997
1760471335800909000,2.272908935546875,-6.428573131561279,-3.2343568801879883,1.8233801126480103
1760471335810871000,2.28287109375,-7.111440181732178,-3.259629726409912,2.003654956817627
1760471335820833000,2.2928330078125,-7.6768670082092285,-3.3591651916503906,2.2903289794921875
1760471335830795000,2.302794921875,-7.960136890411377,-3.7371795177459717,2.6007182598114014
1760471335840757200,2.31275732421875,-8.064352989196777,-3.9773199558258057,2.8531980514526367
1760471335850719000,2.322718994140625,-8.227982521057129,-3.885587692260742,3.0393779277801514
1760471335860682000,2.332681884765625,-8.534600257873535,-3.643343210220337,3.1702871322631836
1760471335870644000,2.34264404296875,-8.767698287963867,-3.3689334392547607,3.254554510116577
1760471335880606200,2.352606201171875,-8.64362907409668,-3.082094192504883,3.2837114334106445
1760471335890568000,2.36256787109375,-8.282655715942383,-2.764677047729492,3.201446294784546
1760471335900530200,2.3725302734375,-7.889276027679443,-2.584786891937256,2.8672173023223877
1760471335910492200,2.3824921875,-7.576797008514404,-2.5438296794891357,2.297268867492676
1760471335920455000,2.392454833984375,-7.289483547210693,-2.536167621612549,1.6625787019729614
1760471335930417200,2.402417236328125,-6.991506099700928,-2.3863182067871094,1.1222009658813477
1760471335940379100,2.412379150390625,-6.605688571929932,-2.0453648567199707,0.7308574318885803
1760471335950340900,2.4223408203125,-6.172244548797607,-1.726946473121643,0.45392274856567383
1760471335960303000,2.43230322265625,-5.612022399902344,-1.5047874450683594,0.24939091503620148
1760471335970265000,2.44226513671875,-4.924274444580078,-1.3435360193252563,0.101139135658741
1760471335980228000,2.45222802734375,-4.1144328117370605,-1.2311897277832031,-0.01185106672346592
1760471335990190000,2.462190185546875,-3.27028751373291,-1.12047278881073,-0.10300014913082123
1760471336000152000,2.472152099609375,-2.461547613143921,-0.9731813669204712,-0.1502677947282791
1760471336010114000,2.482114013671875,-1.6282079219818115,-0.761001467704773,-0.15249766409397125
1760471336020076000,2.492075927734375,-0.820690929889679,-0.47453829646110535,-0.14587518572807312
1760471336030038000,2.5020380859375,-0.09459388256072998,-0.13164830207824707,-0.1646251678466797
1760471336040000000,2.512,0.5689899325370789,0.25126683712005615,-0.23088781535625458
1760471336049963000,2.521962890625,1.1912423372268677,0.5827473402023315,-0.339516282081604
1760471336059925000,2.531925048828125,1.7733875513076782,0.8261069655418396,-0.48546868562698364
1760471336069887200,2.54188720703125,2.3077118396759033,0.9836654663085938,-0.6481353640556335
1760471336079849000,2.551848876953125,2.812912940979004,1.1327787637710571,-0.7952294945716858
1760471336089811200,2.561811279296875,3.3056857585906982,1.285304069519043,-0.9130290746688843
1760471336099773200,2.571773193359375,3.805424690246582,1.4454152584075928,-1.0338785648345947
1760471336109736000,2.58173583984375,4.292972564697266,1.6141142845153809,-1.1887538433074951
1760471336119698000,2.591697998046875,4.779548645019531,1.7778280973434448,-1.3864225149154663
1760471336129660200,2.60166015625,5.253182888031006,1.962603211402893,-1.5807386636734009
1760471336139622000,2.611621826171875,5.771131992340088,2.1209068298339844,-1.7568085193634033
1760471336149584100,2.621584228515625,6.2624311447143555,2.1730856895446777,-1.939285159111023
1760471336159546000,2.631546142578125,6.617071151733398,2.120044231414795,-2.1335933208465576
1760471336169509000,2.641509033203125,6.704278945922852,2.134671449661255,-2.3117265701293945
1760471336179471000,2.65147119140625,6.5446248054504395,2.4274537563323975,-2.5007119178771973
1760471336189432800,2.661432861328125,6.087436676025391,2.919593572616577,-2.7574214935302734
1760471336199394800,2.671394775390625,5.444863796234131,3.4911558628082275,-3.030698776245117
1760471336209356800,2.681356689453125,4.728500843048096,3.8964791297912598,-3.240640640258789
1760471336219318800,2.69131884765625,4.02720832824707,3.8654723167419434,-3.260199785232544
1760471336229281000,2.701281005859375,3.3313276767730713,3.4641942977905273,-3.010186195373535
1760471336239244000,2.711244140625,2.763784885406494,2.7455289363861084,-2.4932892322540283
1760471336249205800,2.721205810546875,2.427426338195801,1.8576233386993408,-1.8322497606277466
1760471336259168000,2.73116796875,2.247126579284668,1.1160567998886108,-1.1601037979125977
1760471336269130000,2.7411298828125,2.114774703979492,0.6100444197654724,-0.61305171251297
1760471336279091700,2.751091796875,1.884678840637207,0.3294481933116913,-0.23781202733516693
1760471336289054000,2.761053955078125,1.4965420961380005,0.2680964171886444,-0.015836220234632492
1760471336299017000,2.771016845703125,0.9944818615913391,0.3982996940612793,0.08931922912597656
1760471336308978700,2.780978759765625,0.49789100885391235,0.5765426754951477,0.10793658345937729
1760471336318941000,2.79094091796875,0.08168314397335052,0.7376372814178467,0.09771963208913803
1760471336328903000,2.80090283203125,-0.21628277003765106,0.8783930540084839,0.12515978515148163
1760471336338865000,2.810864990234375,-0.39633747935295105,0.9178504943847656,0.23055864870548248
1760471336348827000,2.820826904296875,-0.46430909633636475,0.7800667881965637,0.4148153066635132
1760471336358790000,2.830789794921875,-0.4476417005062103,0.5177374482154846,0.6262590885162354
1760471336368752000,2.840752197265625,-0.4020284116268158,0.21776455640792847,0.8010588884353638
1760471336378713900,2.8507138671875,-0.3559495806694031,-0.0493939146399498,0.9055344462394714
1760471336388675800,2.86067578125,-0.34170326590538025,-0.17747971415519714,0.9085767865180969
1760471336398638000,2.87063818359375,-0.36571434140205383,-0.15311124920845032,0.794245183467865
1760471336408599800,2.880599853515625,-0.40722474455833435,-0.037829138338565826,0.5820980072021484
1760471336418562000,2.89056201171875,-0.44457584619522095,0.1313074231147766,0.3376272916793823
1760471336428525000,2.900525146484375,-0.49066904187202454,0.3007150888442993,0.10570352524518967
1760471336438486800,2.91048681640625,-0.5224019289016724,0.4237707257270813,-0.07355144619941711
1760471336448449000,2.920448974609375,-0.5148489475250244,0.4769636392593384,-0.16644063591957092
1760471336458411000,2.930410888671875,-0.46198761463165283,0.42486101388931274,-0.1696031391620636
1760471336468372700,2.940372802734375,-0.36599797010421753,0.30878978967666626,-0.09635796397924423
1760471336478335000,2.9503349609375,-0.2532610297203064,0.17662137746810913,0.011938684619963169
1760471336488298000,2.960298095703125,-0.12442368268966675,0.06296618282794952,0.1170312836766243
1760471336498259700,2.970259765625,0.01540771871805191,-0.018638132140040398,0.1924259066581726
1760471336508222000,2.980221923828125,0.14149081707000732,-0.09866532683372498,0.2109692245721817
1760471336518184000,2.990183837890625,0.2167607992887497,-0.1306980848312378,0.16118036210536957
1760471336528145700,3.000145751953125,0.21191997826099396,-0.12976039946079254,0.03193183243274689
1760471336538108000,3.01010791015625,0.15519225597381592,-0.09132085740566254,-0.12808740139007568
1760471336548070000,3.02006982421875,0.08360807597637177,-0.02587527222931385,-0.262253999710083
1760471336558033000,3.030032958984375,0.03671859949827194,0.03008812665939331,-0.33098962903022766
1760471336567995000,3.039994873046875,0.029713420197367668,0.060750700533390045,-0.33135849237442017
1760471336577956900,3.049956787109375,0.06431560963392258,0.02526301145553589,-0.27855733036994934
1760471336587919000,3.059919189453125,0.13141874969005585,-0.0550033301115036,-0.2131040245294571
1760471336597880800,3.069880859375,0.21715176105499268,-0.1403174251317978,-0.16109700500965118
1760471336607842800,3.0798427734375,0.2966010272502899,-0.20209690928459167,-0.1479732245206833
1760471336617806000,3.08980615234375,0.3389658033847809,-0.24328748881816864,-0.16823428869247437
1760471336627767800,3.099767822265625,0.3495830297470093,-0.28711673617362976,-0.20035040378570557
1760471336637729800,3.109729736328125,0.31498590111732483,-0.3062075972557068,-0.2267196923494339
1760471336647692000,3.119692138671875,0.23067794740200043,-0.3077447712421417,-0.26353389024734497
1760471336657653800,3.12965380859375,0.11101973056793213,-0.29465240240097046,-0.29296156764030457
1760471336667616000,3.139615966796875,-0.037096235901117325,-0.28118640184402466,-0.2817288935184479
1760471336677578000,3.149577880859375,-0.18551340699195862,-0.26016128063201904,-0.21371974050998688
1760471336687541000,3.159541015625,-0.2985307574272156,-0.25680461525917053,-0.08826141804456711
1760471336697503000,3.1695029296875,-0.34049367904663086,-0.27887317538261414,0.0688706785440445
1760471336707465000,3.17946484375,-0.3340160548686981,-0.3340509533882141,0.21652431786060333
1760471336717427000,3.189427001953125,-0.32396209239959717,-0.3988001048564911,0.311795711517334
1760471336727389000,3.199388916015625,-0.3118495047092438,-0.43424972891807556,0.3465843200683594
1760471336737351000,3.209350830078125,-0.3135954737663269,-0.4342347979545593,0.32739144563674927
1760471336747313000,3.21931298828125,-0.3357958495616913,-0.3929781913757324,0.2575109004974365
1760471336757276000,3.22927587890625,-0.3657556176185608,-0.2547529339790344,0.15314747393131256
1760471336767238000,3.23923779296875,-0.3883756995201111,-0.11110441386699677,0.03454972058534622
1760471336777199900,3.249199951171875,-0.4016856551170349,-0.0020397149492055178,-0.056723468005657196
1760471336787161900,3.259161865234375,-0.4174041450023651,0.057691790163517,-0.10412134230136871
1760471336797123800,3.269123779296875,-0.44168445467948914,0.06756599247455597,-0.10086003690958023
1760471336807086000,3.279086181640625,-0.45188358426094055,0.0690549686551094,-0.05492743104696274
1760471336817048800,3.289048828125,-0.4430120587348938,0.030071349814534187,0.014001836068928242
1760471336827010800,3.2990107421875,-0.4152504503726959,-0.023123428225517273,0.08176783472299576
1760471336836973000,3.30897314453125,-0.36759451031684875,-0.060573332011699677,0.12492062896490097
1760471336846934800,3.318934814453125,-0.3171862065792084,-0.13458816707134247,0.15024809539318085
1760471336856896800,3.328896728515625,-0.281685471534729,-0.20267215371131897,0.16398201882839203
1760471336866859000,3.33885888671875,-0.28327566385269165,-0.22596868872642517,0.15590517222881317
1760471336876820700,3.34882080078125,-0.3013435900211334,-0.23109260201454163,0.12405882775783539
1760471336886783700,3.35878369140625,-0.3016144335269928,-0.19623981416225433,0.08410342782735825
1760471336896746000,3.36874609375,-0.30131030082702637,-0.14417581260204315,0.03316620737314224
1760471336906708000,3.3787080078125,-0.30862629413604736,-0.07994996011257172,-0.024994565173983574
1760471336916670000,3.388669921875,-0.3325057923793793,-0.06427166610956192,-0.07160920649766922
1760471336926632000,3.3986318359375,-0.39134860038757324,-0.08010336011648178,-0.0768234059214592
1760471336936594000,3.408593994140625,-0.4683144688606262,-0.10481562465429306,-0.021031782031059265
1760471336946556000,3.418555908203125,-0.5392912030220032,-0.1522073745727539,0.09180129319429398
1760471336956519000,3.428518798828125,-0.578844428062439,-0.2018825262784958,0.22919003665447235
1760471336966481000,3.43848095703125,-0.5979310870170593,-0.26993000507354736,0.3524150252342224
1760471336976443000,3.44844287109375,-0.6104748249053955,-0.3694635331630707,0.4285942316055298
1760471336986404900,3.45840478515625,-0.6413134336471558,-0.4564570188522339,0.4403028190135956
1760471336996367000,3.4683671875,-0.7091771364212036,-0.4580274820327759,0.37387824058532715
1760471337006328800,3.478328857421875,-0.7992854714393616,-0.3927350342273712,0.26827752590179443
1760471337016290800,3.488290771484375,-0.8796684741973877,-0.33761000633239746,0.16436924040317535
1760471337026253800,3.49825390625,-0.9335306286811829,-0.29017189145088196,0.09831032156944275
1760471337036215800,3.5082158203125,-0.9680079221725464,-0.24793070554733276,0.07575095444917679
1760471337046177800,3.518177734375,-0.9910187125205994,-0.2507757544517517,0.09501413255929947
1760471337056140000,3.52814013671875,-1.0286997556686401,-0.2641752064228058,0.16320116817951202
1760471337066101800,3.538101806640625,-1.0972883701324463,-0.3119565546512604,0.28162023425102234
1760471337076063700,3.548063720703125,-1.163881778717041,-0.41642943024635315,0.43467476963996887
1760471337086027000,3.558027099609375,-1.2126389741897583,-0.5581415891647339,0.597213864326477
1760471337095989000,3.567989013671875,-1.2324038743972778,-0.7024095058441162,0.7320734262466431
1760471337105950700,3.57795068359375,-1.238976240158081,-0.8032453060150146,0.8243910670280457
1760471337115913000,3.587912841796875,-1.2756848335266113,-0.7637032270431519,0.852006733417511
1760471337125875000,3.597875,-1.3359962701797485,-0.6297997832298279,0.8067761659622192
1760471337135837000,3.6078369140625,-1.370922565460205,-0.5129506587982178,0.6868473291397095
1760471337145799000,3.617798828125,-1.347678303718567,-0.40879228711128235,0.5211918354034424
1760471337155762000,3.627761962890625,-1.291646122932434,-0.30371594429016113,0.36331960558891296
1760471337165724000,3.637723876953125,-1.1888619661331177,-0.19683316349983215,0.2484007626771927
1760471337175690000,3.64768994140625,-1.0555436611175537,-0.10041768103837967,0.19074544310569763
1760471337185652000,3.65765185546875,-0.9176656603813171,-0.07455839216709137,0.16962765157222748
1760471337195614000,3.667614013671875,-0.8024224042892456,-0.12011655420064926,0.1670326590538025
1760471337205576000,3.677575927734375,-0.7266885042190552,-0.1761031299829483,0.17265033721923828
1760471337215537700,3.68753759765625,-0.6846473217010498,-0.24583213031291962,0.18423455953598022
1760471337225501000,3.6975009765625,-0.6552382707595825,-0.2879425585269928,0.21901197731494904
1760471337235463000,3.707462890625,-0.6242526769638062,-0.3109237849712372,0.2660583257675171
1760471337245425000,3.7174248046875,-0.57270348072052,-0.3366038501262665,0.3072699308395386
1760471337255387000,3.727386962890625,-0.523326575756073,-0.2929554283618927,0.32106882333755493
1760471337265348900,3.737348876953125,-0.48868048191070557,-0.16335377097129822,0.2843987047672272
1760471337275311000,3.74731103515625,-0.44251084327697754,-0.05679164454340935,0.2044210433959961
1760471337285272800,3.75727294921875,-0.37798723578453064,0.030483340844511986,0.12390090525150299
1760471337295235800,3.76723583984375,-0.3155568838119507,0.10088826715946198,0.07717308402061462
1760471337305198000,3.777197998046875,-0.25267860293388367,0.11210816353559494,0.06321465224027634
1760471337315159800,3.787159912109375,-0.17616437375545502,0.049373142421245575,0.07245822250843048
1760471337325121800,3.797121826171875,-0.09250889718532562,-0.05005224794149399,0.09289132803678513
1760471337335084000,3.807083984375,-0.023190805688500404,-0.11154010891914368,0.11070947349071503
1760471337345045800,3.817045654296875,0.040712010115385056,-0.12286306917667389,0.12085983902215958
1760471337355008000,3.827008056640625,0.07922212034463882,-0.09751670062541962,0.11389114707708359
1760471337364971000,3.836970947265625,0.08839058130979538,-0.05332553759217262,0.08879298716783524
1760471337374933000,3.84693310546875,0.09051844477653503,-0.0029345371294766665,0.05447069928050041
1760471337384894700,3.856894775390625,0.1026773750782013,0.0418904572725296,0.02502918615937233
1760471337394857000,3.86685693359375,0.13075748085975647,0.06536488980054855,0.00851652305573225
1760471337404819000,3.87681884765625,0.15247556567192078,0.09500747174024582,0.00021891183860134333
1760471337414781000,3.886781005859375,0.1599598377943039,0.11047138273715973,-0.013246829621493816
1760471337424743000,3.896742919921875,0.15899232029914856,0.09483383595943451,-0.024648621678352356
1760471337434706000,3.906705810546875,0.15049496293067932,0.052016861736774445,-0.024924524128437042
1760471337444668000,3.91666796875,0.15057645738124847,0.008074704557657242,-0.007654723711311817
1760471337454630000,3.9266298828125,0.15904025733470917,-0.02522040158510208,0.02455754019320011
1760471337464592000,3.936591796875,0.1679232269525528,-0.02719939686357975,0.05156145989894867
1760471337474553900,3.946553955078125,0.1732250452041626,-0.011171428486704826,0.05536631867289543
1760471337484515800,3.956515869140625,0.1713656336069107,0.021639781072735786,0.023495739325881004
1760471337494478000,3.96647802734375,0.17403757572174072,0.05615381523966789,-0.04158339649438858
1760471337504440800,3.97644091796875,0.1806906908750534,0.1005210131406784,-0.11252175271511078
1760471337514402800,3.98640283203125,0.18393228948116302,0.1391107439994812,-0.1706300675868988
1760471337524365000,3.996364990234375,0.19534818828105927,0.146445631980896,-0.2048780471086502
1760471337534326800,4.006326904296875,0.21522922813892365,0.1274261325597763,-0.20420905947685242
1760471337544288800,4.016288818359375,0.23382873833179474,0.09744320064783096,-0.1812845766544342
1760471337554251000,4.0262509765625,0.24634931981563568,0.05350689962506294,-0.1526918113231659
1760471337564212700,4.036212646484375,0.26748257875442505,0.017235977575182915,-0.12528708577156067
1760471337574175700,4.04617578125,0.2939506769180298,0.011406319215893745,-0.10131676495075226
1760471337584138000,4.056137939453125,0.3318743407726288,0.005066131241619587,-0.10336766391992569
1760471337594100000,4.066099853515625,0.38324326276779175,0.006457366514950991,-0.13591575622558594
1760471337604062000,4.07606201171875,0.43103528022766113,0.013440974056720734,-0.18650729954242706
1760471337614024000,4.08602392578125,0.4614853262901306,0.034273285418748856,-0.23231074213981628
1760471337623986000,4.09598583984375,0.47927284240722656,0.07028774172067642,-0.27733227610588074
1760471337633948000,4.105947998046875,0.49854880571365356,0.10957735776901245,-0.31184762716293335
1760471337643911000,4.115910888671875,0.5128340125083923,0.11964277923107147,-0.3317904472351074
1760471337653873000,4.125872802734375,0.520557165145874,0.09628818929195404,-0.32274237275123596
1760471337663835000,4.1358349609375,0.5291727781295776,0.06402159482240677,-0.29358020424842834
1760471337673796900,4.145796875,0.531010627746582,0.02762177400290966,-0.25639262795448303
1760471337683758800,4.1557587890625,0.5297994017601013,-0.0038045919500291348,-0.2370905727148056
1760471337693720800,4.165720947265625,0.5439903140068054,-0.012051869183778763,-0.2445298582315445
1760471337703682800,4.175682861328125,0.5598454475402832,-0.022999059408903122,-0.26652437448501587
1760471337713645800,4.185645751953125,0.5688642263412476,-0.019595805555582047,-0.2941160500049591
1760471337723608000,4.195608154296875,0.5699548125267029,0.0026075011119246483,-0.3174631893634796
1760471337733569800,4.20556982421875,0.5736808180809021,0.022122079506516457,-0.3303329050540924
1760471337743532000,4.215531982421875,0.5862137079238892,0.03160799294710159,-0.3304561972618103
1760471337753493800,4.22549365234375,0.6019992828369141,0.02930808812379837,-0.3263442814350128
1760471337763455700,4.235455810546875,0.6150493025779724,0.016477510333061218,-0.31911593675613403
1760471337773418000,4.24541796875,0.6334320902824402,0.0021142836194485426,-0.3162112236022949
1760471337783381000,4.255381103515625,0.6586830615997314,-0.018247447907924652,-0.3244403898715973
1760471337793342700,4.2653427734375,0.6707853078842163,-0.006622216198593378,-0.33793169260025024
1760471337803305000,4.275304931640625,0.6525455713272095,0.030832480639219284,-0.3579839766025543
1760471337813267000,4.285266845703125,0.634644091129303,0.0796373039484024,-0.38199877738952637
1760471337823229000,4.29522900390625,0.6271147727966309,0.13783030211925507,-0.4068942666053772
1760471337833191000,4.30519091796875,0.6338597536087036,0.19061201810836792,-0.4359317719936371
1760471337843153000,4.31515283203125,0.6571512222290039,0.21788732707500458,-0.4697616398334503
1760471337853116000,4.325115966796875,0.6861628890037537,0.20410999655723572,-0.5045385360717773
1760471337863078000,4.335077880859375,0.7199667096138,0.1706489771604538,-0.5312244892120361
1760471337873040000,4.345039794921875,0.7578272223472595,0.13749021291732788,-0.5446446537971497
1760471337883001900,4.355001953125,0.7716708779335022,0.11031212657690048,-0.549480140209198
1760471337892963800,4.3649638671875,0.7898712158203125,0.1106886938214302,-0.5575745701789856
1760471337902926000,4.374926025390625,0.8446803689002991,0.1550212800502777,-0.5767788887023926
1760471337912887800,4.3848876953125,0.90909743309021,0.20798595249652863,-0.6171540021896362
1760471337922850800,4.394850830078125,0.9708505868911743,0.24120250344276428,-0.6650876998901367
1760471337932813000,4.40481298828125,1.0247989892959595,0.2375877946615219,-0.7189488410949707
1760471337942775000,4.414775146484375,1.0563971996307373,0.22145462036132812,-0.7750938534736633
1760471337952736800,4.42473681640625,1.0572104454040527,0.27818262577056885,-0.8304958343505859
1760471337962699000,4.434698974609375,1.0253015756607056,0.36413827538490295,-0.877098798751831
1760471337972661000,4.444660888671875,0.9912999272346497,0.4209110140800476,-0.9043421149253845
1760471337982623000,4.454623046875,1.0013725757598877,0.4414261281490326,-0.9108985662460327
1760471337992585000,4.4645849609375,1.0701020956039429,0.4242687225341797,-0.8928596377372742
1760471338002548000,4.4745478515625,1.1859301328659058,0.39678436517715454,-0.8584033846855164
1760471338012509700,4.484509765625,1.3285576105117798,0.35552269220352173,-0.8180543780326843
1760471338022472000,4.494471923828125,1.4673596620559692,0.3143499493598938,-0.779154360294342
1760471338032434000,4.504433837890625,1.5744600296020508,0.2779722213745117,-0.7422195076942444
1760471338042396000,4.51439599609375,1.6113213300704956,0.3088656961917877,-0.7147167921066284
1760471338052358000,4.52435791015625,1.5460236072540283,0.38564303517341614,-0.696593165397644
1760471338062319900,4.53431982421875,1.4071130752563477,0.4634251892566681,-0.69135582447052
1760471338072283000,4.544282958984375,1.223441243171692,0.5913309454917908,-0.6839229464530945
1760471338082244900,4.554244873046875,1.0167768001556396,0.6926186680793762,-0.6565821170806885
1760471338092206800,4.564206787109375,0.803733766078949,0.6483729481697083,-0.6112452745437622
1760471338102168800,4.5741689453125,0.6146679520606995,0.46608540415763855,-0.5255633592605591
1760471338112130800,4.584130859375,0.4592621326446533,0.19110338389873505,-0.39692285656929016
1760471338122093000,4.594093017578125,0.32891371846199036,-0.09140581637620926,-0.23494753241539001
1760471338132054800,4.6040546875,0.2224881947040558,-0.3020341694355011,-0.04909404367208481
1760471338142017800,4.614017822265625,0.11876073479652405,-0.42482373118400574,0.13078570365905762
1760471338151980000,4.62397998046875,0.013593839481472969,-0.4165189266204834,0.2727859914302826
1760471338161942000,4.63394189453125,-0.08807872235774994,-0.32491016387939453,0.3648059368133545
1760471338171903700,4.64390380859375,-0.17850609123706818,-0.22676390409469604,0.4105185568332672
1760471338181862100,4.653862060546875,-0.2688192129135132,-0.15863731503486633,0.4138736128807068
1760471338191824100,4.66382421875,-0.3480362594127655,-0.12761254608631134,0.3821055591106415
1760471338201786000,4.6737861328125,-0.4210740029811859,-0.12998436391353607,0.3298173248767853
1760471338211748000,4.683748046875,-0.4821282923221588,-0.1629582941532135,0.273168683052063
1760471338221711000,4.693711181640625,-0.5262235999107361,-0.2284933626651764,0.22677695751190186
1760471338231673300,4.70367333984375,-0.5557609796524048,-0.2826141119003296,0.20555607974529266
1760471338241635000,4.713635009765625,-0.584295392036438,-0.309181809425354,0.20370705425739288
1760471338251597000,4.72359716796875,-0.6124204993247986,-0.3026086091995239,0.2138100266456604
1760471338261559300,4.733559326171875,-0.625298261642456,-0.2587607204914093,0.23306573927402496
1760471338271521000,4.74352099609375,-0.627404510974884,-0.21356235444545746,0.2584579288959503
1760471338281483300,4.753483154296875,-0.6321811676025391,-0.16836264729499817,0.28990504145622253
1760471338291445200,4.7634453125,-0.6485382914543152,-0.13473011553287506,0.32933688163757324
1760471338301408000,4.773407958984375,-0.6621350646018982,-0.15163986384868622,0.36620888113975525
1760471338311370200,4.783370361328125,-0.6777436137199402,-0.17616170644760132,0.4021463692188263
1760471338321332200,4.793332275390625,-0.7031674385070801,-0.1920117884874344,0.42819660902023315
1760471338331294000,4.8032939453125,-0.7302707433700562,-0.22114649415016174,0.45053014159202576
1760471338341256200,4.813256103515625,-0.7652984857559204,-0.23997531831264496,0.47009745240211487
1760471338351218200,4.82321826171875,-0.8149755001068115,-0.24403689801692963,0.48032933473587036
1760471338361180200,4.83318017578125,-0.8975603580474854,-0.21223768591880798,0.49366456270217896
1760471338371143200,4.84314306640625,-1.0252549648284912,-0.1454133838415146,0.5335839986801147
1760471338381105200,4.853105224609375,-1.1996803283691406,-0.06561336666345596,0.598629891872406
1760471338391067400,4.8630673828125,-1.3969295024871826,0.0277384202927351,0.6806104779243469
1760471338401029000,4.873029052734375,-1.5883729457855225,-0.04303987696766853,0.7654665112495422
1760471338410991000,4.8829912109375,-1.7602232694625854,-0.2662074565887451,0.8374501466751099
1760471338420953000,4.892953125,-1.9210618734359741,-0.45793160796165466,0.9164022207260132
1760471338430915000,4.9029150390625,-2.092468023300171,-0.668121337890625,1.036633014678955
1760471338440877300,4.912877197265625,-2.3025224208831787,-0.9416892528533936,1.203468680381775
1760471338450840300,4.92284033203125,-2.5841493606567383,-1.0681073665618896,1.4099323749542236
1760471338460802000,4.932802001953125,-2.929450511932373,-1.0805349349975586,1.6366839408874512
1760471338470764300,4.942764404296875,-3.350477933883667,-1.060549020767212,1.8440123796463013
1760471338480726300,4.952726318359375,-3.8029532432556152,-0.997765839099884,1.9833303689956665
1760471338490688000,4.96268798828125,-4.112870216369629,-1.0773751735687256,2.0396552085876465
1760471338500650200,4.972650146484375,-4.37497091293335,-1.2018662691116333,2.01804256439209
1760471338510612200,4.9826123046875,-4.548899173736572,-1.3516818284988403,1.944148302078247
1760471338520574200,4.99257421875,-4.551649570465088,-1.5943686962127686,1.8420395851135254
1760471338530537200,5.002537109375,-4.383950710296631,-1.872035026550293,1.7693370580673218
1760471338540499200,5.012499267578125,-4.139945983886719,-1.9721927642822266,1.7235389947891235
1760471338550461000,5.0224609375,-3.8446478843688965,-1.8571252822875977,1.7044817209243774
1760471338560423200,5.032423095703125,-3.49397349357605,-1.6547212600708008,1.6785774230957031
1760471338570385200,5.04238525390625,-3.102139711380005,-1.421959400177002,1.5951576232910156
1760471338580347100,5.05234716796875,-2.591933250427246,-1.1170903444290161,1.4542769193649292
1760471338590309000,5.06230908203125,-2.0460236072540283,-0.7439519166946411,1.2529877424240112
1760471338600271000,5.07227099609375,-1.601635456085205,-0.3602471351623535,0.9892812371253967
1760471338610234400,5.082234375,-1.2357450723648071,-0.02316444180905819,0.6735999584197998
1760471338620196000,5.092196044921875,-0.9075251221656799,0.21316899359226227,0.34856942296028137
1760471338630158000,5.102157958984375,-0.6206265091896057,0.3467094898223877,0.05231194198131561
1760471338640120300,5.112120361328125,-0.3204067647457123,0.4191136360168457,-0.19023412466049194
1760471338650082000,5.12208203125,0.0062403189949691296,0.4539443254470825,-0.33839163184165955
1760471338660044300,5.132044189453125,0.3276841342449188,0.44964757561683655,-0.3792772889137268
1760471338670006000,5.142006103515625,0.6303960680961609,0.40981629490852356,-0.34492969512939453
1760471338679968000,5.151968017578125,0.9122599363327026,0.3736332356929779,-0.25771862268447876
1760471338689931300,5.16193115234375,1.1325981616973877,0.3935869634151459,-0.1785987764596939
1760471338699893200,5.171893310546875,1.2879263162612915,0.4850183427333832,-0.14862702786922455
1760471338709855000,5.18185498046875,1.4313353300094604,0.5411508679389954,-0.16911019384860992
1760471338719817200,5.191817138671875,1.5818649530410767,0.511590838432312,-0.21738319098949432
1760471338729779200,5.201779296875,1.6950831413269043,0.46888065338134766,-0.28341439366340637
1760471338739741200,5.2117412109375,1.7576218843460083,0.4834761321544647,-0.36826059222221375
1760471338749703200,5.221703125,1.7637526988983154,0.5233774781227112,-0.4661879539489746
1760471338759666200,5.231666259765625,1.8037898540496826,0.6231099367141724,-0.5617043375968933
1760471338769628200,5.241628173828125,1.761842966079712,0.7886815667152405,-0.6433579325675964
1760471338779590100,5.251590087890625,1.6457208395004272,0.8438268303871155,-0.6992819309234619
1760471338789552000,5.26155224609375,1.5391305685043335,0.7886708974838257,-0.740150511264801
1760471338799514000,5.27151416015625,1.441604495048523,0.6532968282699585,-0.7516719102859497
1760471338809476000,5.28147607421875,1.3404914140701294,0.5148729085922241,-0.7363059520721436
1760471338819438300,5.291438232421875,1.274457335472107,0.4262208342552185,-0.69846510887146
1760471338829400000,5.301400146484375,1.2595503330230713,0.4323844313621521,-0.6301228404045105
1760471338839363000,5.311363037109375,1.2801215648651123,0.4823184311389923,-0.545586347579956
1760471338849325000,5.321324951171875,1.3324042558670044,0.5283642411231995,-0.4850950539112091
1760471338859287300,5.331287353515625,1.3833953142166138,0.5299080610275269,-0.4722740650177002
1760471338869249000,5.3412490234375,1.4243147373199463,0.5084989070892334,-0.5144638419151306
1760471338879211300,5.351211181640625,1.4492496252059937,0.5375502705574036,-0.602157473564148
1760471338889173200,5.36117333984375,1.4502300024032593,0.6023638844490051,-0.7196947932243347
1760471338899135200,5.37113525390625,1.4328809976577759,0.6896798610687256,-0.8393117189407349
1760471338909097200,5.38109716796875,1.4268887042999268,0.8049510717391968,-0.9494448900222778
1760471338919060200,5.391060302734375,1.4693381786346436,0.8855175375938416,-1.0514380931854248
1760471338929022000,5.40102197265625,1.5769215822219849,0.9750605225563049,-1.1367183923721313
1760471338938984200,5.410984130859375,1.7107657194137573,1.0732454061508179,-1.2143257856369019
1760471338948946200,5.4209462890625,1.8589670658111572,1.1214948892593384,-1.3000582456588745
1760471338958908200,5.430908203125,1.9963500499725342,1.1849346160888672,-1.388390064239502
1760471338968870100,5.4408701171875,2.086815357208252,1.2461692094802856,-1.4720215797424316
1760471338978832100,5.45083203125,2.163067579269409,1.2754299640655518,-1.5532162189483643
1760471338988794000,5.460794189453125,2.228205919265747,1.286257028579712,-1.6189076900482178
1760471338998757000,5.470757080078125,2.290252685546875,1.2582671642303467,-1.656100869178772
1760471339008719000,5.480718994140625,2.380042314529419,1.158036231994629,-1.6608790159225464
1760471339018681000,5.49068115234375,2.5372166633605957,0.9948920011520386,-1.641155481338501
1760471339028643000,5.50064306640625,2.789398670196533,0.7787554264068604,-1.589083194732666
1760471339038605300,5.510605224609375,3.094677209854126,0.5000758767127991,-1.4967612028121948
1760471339048567000,5.520567138671875,3.398256301879883,0.11335159093141556,-1.363884687423706
1760471339058529000,5.530529052734375,3.6080684661865234,-0.2096506953239441,-1.2348265647888184
1760471339068491300,5.5404912109375,3.651675224304199,-0.008860336616635323,-1.1284958124160767
1760471339078454300,5.550454345703125,3.5187718868255615,0.5430872440338135,-1.0733106136322021
1760471339088416000,5.560416015625,3.240561008453369,1.1008937358856201,-1.084363579750061
1760471339098378200,5.570378173828125,2.9118382930755615,1.3793398141860962,-1.1159366369247437
1760471339108340200,5.58034033203125,2.60404896736145,1.3620268106460571,-1.118290901184082
1760471339118302200,5.59030224609375,2.3591115474700928,1.0534725189208984,-1.064447045326233
1760471339128264200,5.60026416015625,2.1337878704071045,0.5811669826507568,-0.9670885801315308
1760471339138226000,5.610225830078125,1.8971760272979736,0.24871128797531128,-0.8280838131904602
1760471339148189200,5.620189208984375,1.6232326030731201,0.11657028645277023,-0.6575791835784912
1760471339158151200,5.630151123046875,1.3065897226333618,0.08291459083557129,-0.49597859382629395
1760471339168113200,5.640113037109375,0.9638648629188538,0.09893377125263214,-0.3576960861682892
1760471339178075400,5.650075439453125,0.6143766045570374,0.08597030490636826,-0.2569209933280945
1760471339188037000,5.660037109375,0.2513321042060852,0.022821426391601562,-0.17734308540821075
1760471339197999400,5.669999267578125,-0.11193159222602844,-0.14262345433235168,-0.11657774448394775
1760471339207961300,5.67996142578125,-0.45504075288772583,-0.3684949278831482,-0.052142295986413956
1760471339217923000,5.689923095703125,-0.7523214221000671,-0.5962809920310974,0.05100912228226662
1760471339227886000,5.699885986328125,-1.0376482009887695,-0.797900915145874,0.18242120742797852
1760471339237848300,5.709848388671875,-1.3636378049850464,-0.8847769498825073,0.3500552177429199
1760471339247810300,5.719810302734375,-1.7841554880142212,-0.8889551758766174,0.557541012763977
1760471339257772300,5.729772216796875,-2.2811434268951416,-0.8259003162384033,0.813602089881897
1760471339267734300,5.739734375,-2.8420352935791016,-0.8159816265106201,1.1254411935806274
1760471339277696300,5.7496962890625,-3.4364588260650635,-0.8608923554420471,1.4816536903381348
1760471339287658200,5.759658203125,-4.0243425369262695,-0.9019143581390381,1.8697891235351562
1760471339297620200,5.7696201171875,-4.592029571533203,-1.0079830884933472,2.2503087520599365
1760471339307583200,5.779583251953125,-5.117945671081543,-1.1783132553100586,2.6189322471618652
1760471339317545200,5.789545166015625,-5.598940372467041,-1.4412652254104614,2.9668045043945312
1760471339327507200,5.799507080078125,-6.013313293457031,-1.7797303199768066,3.2671008110046387
1760471339337469400,5.809469482421875,-6.367751598358154,-2.086867094039917,3.5007596015930176
1760471339347431200,5.81943115234375,-6.631311416625977,-2.390486717224121,3.637336492538452
1760471339357393200,5.82939306640625,-6.777114391326904,-2.6986031532287598,3.6441171169281006
1760471339367355400,5.83935546875,-6.830875873565674,-2.946204423904419,3.5402872562408447
1760471339377317000,5.849317138671875,-6.813937187194824,-3.2063751220703125,3.316000461578369
1760471339387280100,5.859280029296875,-6.74892520904541,-3.325852632522583,2.997645378112793
1760471339397242400,5.869242431640625,-6.6285600662231445,-3.2456610202789307,2.6397526264190674
1760471339407204400,5.879204345703125,-6.488372325897217,-3.0341298580169678,2.301028251647949
1760471339417166300,5.889166259765625,-6.357656955718994,-2.717392683029175,2.017656087875366
1760471339427128300,5.89912841796875,-6.063377857208252,-2.3155457973480225,1.7884687185287476
1760471339437090000,5.909090087890625,-5.6345391273498535,-1.8781490325927734,1.5904512405395508
1760471339447052300,5.91905224609375,-5.094123363494873,-1.466245174407959,1.4007455110549927
1760471339457014300,5.92901416015625,-4.457783222198486,-1.1443842649459839,1.1827119588851929
1760471339466977300,5.938977294921875,-3.7629895210266113,-0.9066987633705139,0.9233413934707642
1760471339476939300,5.948939208984375,-3.0369813442230225,-0.7343592047691345,0.6414763927459717
1760471339486901200,5.9589013671875,-2.307594060897827,-0.6090081930160522,0.3233373165130615
1760471339496863500,5.968863525390625,-1.6124508380889893,-0.5075079798698425,-0.015162973664700985
1760471339506825200,5.9788251953125,-0.9231104850769043,-0.38386350870132446,-0.32502281665802
1760471339516787200,5.988787109375,-0.20816652476787567,-0.2148904651403427,-0.5432326793670654
1760471339526749400,5.99874951171875,0.497279554605484,0.01649029366672039,-0.6402063369750977
1760471339536711200,6.008711181640625,1.2026997804641724,0.2783277630805969,-0.6332099437713623
1760471339546674200,6.018674072265625,1.903862476348877,0.5252549648284912,-0.5819443464279175
1760471339556636400,6.028636474609375,2.5709123611450195,0.6917877793312073,-0.5358290672302246
1760471339566598100,6.03859814453125,3.1845877170562744,0.8287560343742371,-0.5342852473258972
1760471339576560400,6.048560302734375,3.767768621444702,0.9751068353652954,-0.5746212005615234
1760471339586522400,6.0585224609375,4.330942630767822,1.1065583229064941,-0.6446170806884766
1760471339596484000,6.068484130859375,4.833932876586914,1.201313853263855,-0.7405965924263
1760471339606446300,6.0784462890625,5.259433269500732,1.2844282388687134,-0.8631797432899475
1760471339616409300,6.088409423828125,5.670661449432373,1.3353753089904785,-0.9800565838813782
1760471339626371300,6.098371337890625,6.066144943237305,1.3221180438995361,-1.0901873111724854
1760471339636333300,6.108333251953125,6.460663795471191,1.170220971107483,-1.1648958921432495
1760471339646295300,6.11829541015625,6.803542613983154,1.092604398727417,-1.2090306282043457
1760471339656257300,6.12825732421875,7.045034885406494,1.18464994430542,-1.2908333539962769
1760471339666219300,6.13821923828125,7.225427627563477,1.378251075744629,-1.4470815658569336
1760471339676181200,6.14818115234375,7.4523138999938965,1.568086862564087,-1.6772921085357666
1760471339686143200,6.158143310546875,7.632026195526123,1.945351004600525,-1.9631403684616089
1760471339696105200,6.168105224609375,7.645634174346924,2.546566963195801,-2.2754008769989014
1760471339706068200,6.178068115234375,7.467916011810303,3.2711827754974365,-2.5844976902008057
1760471339716030500,6.188030517578125,7.174540042877197,3.853891611099243,-2.9117908477783203
1760471339725992200,6.1979921875,6.7952704429626465,4.335646629333496,-3.247537612915039
1760471339735954200,6.2079541015625,6.396034240722656,4.539053440093994,-3.5436503887176514
1760471339745916400,6.21791650390625,6.029378414154053,4.257452964782715,-3.764066219329834
1760471339755878100,6.227878173828125,5.656075954437256,3.6123061180114746,-3.803873062133789
1760471339765840400,6.23784033203125,5.257071495056152,2.81048583984375,-3.6105167865753174
1760471339775802400,6.24780224609375,4.857876300811768,1.9706430435180664,-3.282527446746826
1760471339785765000,6.25776513671875,4.448556900024414,1.2450776100158691,-2.916449546813965
1760471339795727400,6.267727294921875,3.988656520843506,0.7755319476127625,-2.535069465637207
1760471339805689300,6.277689453125,3.445755958557129,0.6061695218086243,-2.124225616455078
1760471339815651000,6.287651123046875,2.880591630935669,0.7167519927024841,-1.6747807264328003
1760471339825613300,6.29761328125,2.315068006515503,0.9135465621948242,-1.255984902381897
1760471339835575300,6.3075751953125,1.753981590270996,1.0548291206359863,-0.920665979385376
1760471339845537300,6.317537353515625,1.1932979822158813,1.0403270721435547,-0.6479761004447937
1760471339855499300,6.327499267578125,0.5313006043434143,0.8668213486671448,-0.3606681823730469
1760471339865462300,6.337462158203125,-0.25925207138061523,0.696371853351593,0.005502090789377689
1760471339875424500,6.347424560546875,-1.0909450054168701,0.4829341769218445,0.4629191756248474
1760471339885386200,6.35738623046875,-1.8701257705688477,0.16629336774349213,1.0104304552078247
1760471339895348200,6.36734814453125,-2.5787556171417236,-0.26374056935310364,1.618519902229309
1760471339905310500,6.377310546875,-3.203277826309204,-0.8011353015899658,2.2199807167053223
1760471339915272200,6.387272216796875,-3.761814594268799,-1.3293392658233643,2.7557175159454346
1760471339925234400,6.397234375,-4.258690357208252,-1.64444100856781,3.190502166748047
1760471339935196200,6.407196044921875,-4.722998142242432,-1.8473820686340332,3.510159969329834
1760471339945159200,6.4171591796875,-5.181051731109619,-2.0652015209198,3.710925817489624
1760471339955121200,6.42712109375,-5.625138282775879,-2.357900381088257,3.799255609512329
1760471339965083400,6.43708349609375,-6.022006511688232,-2.604396104812622,3.810807466506958
1760471339975045000,6.447045166015625,-6.373255729675293,-2.7377514839172363,3.7835934162139893
1760471339985007400,6.45700732421875,-6.677531719207764,-2.890876054763794,3.756821870803833
1760471339994969300,6.46696923828125,-6.9039459228515625,-3.157942771911621,3.724745273590088
1760471340004931300,6.476931396484375,-7.036429405212402,-3.4238555431365967,3.6718075275421143
1760471340014893300,6.486893310546875,-7.090252876281738,-3.4789745807647705,3.6177117824554443
1760471340024856300,6.496856201171875,-7.077268600463867,-3.4483330249786377,3.5799636840820312
1760471340034818000,6.506818115234375,-7.018826961517334,-3.4477715492248535,3.5340967178344727
1760471340044780300,6.5167802734375,-6.947391986846924,-3.483350992202759,3.454562187194824
1760471340054742300,6.5267421875,-6.864084243774414,-3.4437386989593506,3.334092140197754
1760471340064704300,6.536704345703125,-6.724390983581543,-3.2428877353668213,3.15769362449646
1760471340074666200,6.546666259765625,-6.458347320556641,-2.9850854873657227,2.9368388652801514
1760471340084628200,6.556628173828125,-6.051235675811768,-2.744534730911255,2.661224842071533
1760471340094590200,6.566590087890625,-5.5350542068481445,-2.5570478439331055,2.2803142070770264
1760471340104552200,6.57655224609375,-4.974140167236328,-2.3213512897491455,1.836768627166748
1760471340114515200,6.58651513671875,-4.40533447265625,-2.024414300918579,1.4039098024368286
1760471340124477400,6.5964775390625,-3.873492479324341,-1.6903812885284424,1.0369848012924194
1760471340134439200,6.606439208984375,-3.3514604568481445,-1.3471227884292603,0.7549228072166443
1760471340144401400,6.6164013671875,-2.77248477935791,-1.0385465621948242,0.5177587270736694
1760471340154363400,6.62636328125,-2.1670782566070557,-0.754795491695404,0.31579896807670593
1760471340164325000,6.6363251953125,-1.5473501682281494,-0.4782118499279022,0.16324138641357422
1760471340174287400,6.646287353515625,-0.9146405458450317,-0.26889750361442566,0.05082349851727486
1760471340184248300,6.656248291015625,-0.32532644271850586,-0.11366903781890869,-0.024352211505174637
1760471340194211600,6.666211669921875,0.22095900774002075,0.028002340346574783,-0.0818096473813057
1760471340204173600,6.676173583984375,0.7837427258491516,0.1830529123544693,-0.13675785064697266
1760471340214135300,6.68613525390625,1.37533438205719,0.37547749280929565,-0.18361510336399078
1760471340224097500,6.69609765625,1.985387921333313,0.5965997576713562,-0.21920478343963623
1760471340234059500,6.7060595703125,2.568103075027466,0.7703915238380432,-0.2478470802307129
1760471340244021500,6.716021484375,3.1093811988830566,0.8857370018959045,-0.26911482214927673
1760471340253983500,6.7259833984375,3.6420512199401855,0.9722010493278503,-0.28248947858810425
1760471340263945500,6.735945556640625,4.195772171020508,1.071678638458252,-0.2880893051624298
1760471340273908700,6.74590869140625,4.762592315673828,1.188230037689209,-0.30489784479141235
1760471340283870500,6.755870361328125,5.266955375671387,1.324422001838684,-0.3602401912212372
1760471340293832400,6.76583251953125,5.724489212036133,1.4728924036026,-0.46920931339263916
1760471340303794700,6.775794677734375,6.184729099273682,1.6738777160644531,-0.614030122756958
1760471340313756400,6.78575634765625,6.623409271240234,1.956035852432251,-0.785876452922821
1760471340323718700,6.79571875,6.961847305297852,2.254826068878174,-0.9554489850997925
1760471340333680600,6.8056806640625,7.106374740600586,2.5645132064819336,-1.1374163627624512
1760471340343642400,6.815642333984375,7.166409015655518,2.9049315452575684,-1.3486477136611938
1760471340353604600,6.8256044921875,7.220845699310303,3.411099433898926,-1.6432687044143677
1760471340363567600,6.835567626953125,7.308444976806641,3.7749195098876953,-2.021695375442505
1760471340373529300,6.845529296875,7.385695457458496,3.8950438499450684,-2.439732074737549
1760471340383491600,6.85549169921875,7.34755802154541,3.784040927886963,-2.808854341506958
1760471340393453600,6.86545361328125,7.171213150024414,3.697326421737671,-3.06585955619812
1760471340403415600,6.87541552734375,6.84709358215332,3.7617878913879395,-3.18287992477417
1760471340413377500,6.88537744140625,6.483632564544678,3.9256765842437744,-3.180466890335083
1760471340423339500,6.895339599609375,6.082030773162842,4.226677417755127,-3.0851283073425293
1760471340433301500,6.905301513671875,5.604620933532715,4.216777801513672,-2.9283533096313477
1760471340443264500,6.915264404296875,5.14413595199585,3.7965924739837646,-2.716935873031616
1760471340453226500,6.9252265625,4.75424337387085,3.200467586517334,-2.4308316707611084
1760471340463188500,6.9351884765625,4.4171648025512695,2.6119625568389893,-2.0658154487609863
1760471340473150500,6.945150390625,4.190564155578613,2.066452741622925,-1.6588492393493652
1760471340483112400,6.955112548828125,4.040527820587158,1.5381193161010742,-1.2401483058929443
1760471340493074400,6.965074462890625,4.033807277679443,0.9752122759819031,-0.8626053333282471
1760471340503036400,6.975036376953125,4.135622501373291,0.34120792150497437,-0.6246989965438843
1760471340512998700,6.98499853515625,4.23784875869751,0.056721869856119156,-0.5857529640197754
1760471340522960400,6.99496044921875,4.182844638824463,0.17604054510593414,-0.7245585322380066
1760471340532923400,7.00492333984375,3.900108575820923,0.47568798065185547,-0.9770522713661194
1760471340542885600,7.0148857421875,3.4494619369506836,0.7501232624053955,-1.2368526458740234
1760471340552847600,7.02484765625,2.9318454265594482,0.8104348182678223,-1.3915379047393799
1760471340562809300,7.034809326171875,2.4540982246398926,0.5936306118965149,-1.3614555597305298
1760471340572771600,7.044771484375,1.974342703819275,0.2076762318611145,-1.1543530225753784
1760471340582733600,7.054733642578125,1.5029853582382202,-0.21996591985225677,-0.7951967120170593
1760471340592695600,7.064695556640625,1.0214053392410278,-0.6676830053329468,-0.3614322245121002
1760471340602657500,7.074657470703125,0.5078288912773132,-1.0810636281967163,0.06738090515136719
1760471340612619500,7.08461962890625,-0.07994277030229568,-1.4043705463409424,0.44262269139289856
1760471340622582500,7.09458251953125,-0.7391395568847656,-1.7256418466567993,0.7189432382583618
1760471340632544500,7.10454443359375,-1.410455346107483,-2.0861895084381104,0.8708217144012451
1760471340642506500,7.114506591796875,-2.1329493522644043,-2.4178225994110107,0.9217019081115723
1760471340652468500,7.124468505859375,-2.9199931621551514,-2.7985167503356934,0.9511575698852539
1760471340662430500,7.134430419921875,-3.6477296352386475,-3.1864285469055176,1.024462103843689
1760471340672392700,7.144392822265625,-4.266859531402588,-3.4838452339172363,1.1655579805374146
1760471340682354400,7.1543544921875,-4.78598165512085,-3.739077568054199,1.3641622066497803
1760471340692316400,7.16431640625,-5.215334415435791,-4.056858062744141,1.598968267440796
1760471340702278700,7.174278564453125,-5.598439693450928,-4.494807720184326,1.8344236612319946
1760471340712241400,7.184241455078125,-5.997779846191406,-4.80264949798584,2.0611770153045654
1760471340722203400,7.194203369140625,-6.4463911056518555,-4.93443489074707,2.2450947761535645
1760471340732165600,7.20416552734375,-6.834473609924316,-4.860003471374512,2.361135721206665
1760471340742127400,7.21412744140625,-7.1179914474487305,-4.6432204246521,2.4193994998931885
1760471340752089600,7.224089599609375,-7.183973789215088,-4.397253513336182,2.4522759914398193
1760471340762051600,7.234051513671875,-6.964402675628662,-4.001536846160889,2.499476194381714
1760471340772013300,7.244013427734375,-6.5452351570129395,-3.5358920097351074,2.5223729610443115
1760471340781975600,7.2539755859375,-5.9447174072265625,-3.1882379055023193,2.3540055751800537
1760471340791937500,7.2639375,-5.2656755447387695,-2.8830676078796387,2.0401957035064697
1760471340801900500,7.273900634765625,-4.698673725128174,-2.527405023574829,1.686668872833252
1760471340811862500,7.283862548828125,-4.284573078155518,-1.9218600988388062,1.4217873811721802
1760471340821824500,7.293824462890625,-3.8938541412353516,-1.1594280004501343,1.2968918085098267
1760471340831786800,7.303786865234375,-3.481006622314453,-0.5526373386383057,1.1891248226165771
1760471340841748500,7.31374853515625,-3.047711133956909,-0.17426981031894684,1.029751181602478
1760471340851710500,7.32371044921875,-2.530539035797119,-0.06283754855394363,0.7781413197517395
1760471340861672700,7.333672607421875,-1.9196674823760986,-0.1636539101600647,0.5106208920478821
1760471340871634400,7.343634521484375,-1.3078813552856445,-0.4875968396663666,0.2891303300857544
1760471340881596700,7.3535966796875,-0.6349915862083435,-0.8514608144760132,0.17761100828647614
1760471340891559700,7.3635595703125,0.08145438134670258,-1.0556226968765259,0.18554562330245972
1760471340901521400,7.373521484375,0.8770268559455872,-0.9757670164108276,0.24930836260318756
1760471340911483600,7.383483642578125,1.7312467098236084,-0.7433031797409058,0.27818819880485535
1760471340921445600,7.393445556640625,2.5772008895874023,-0.49356070160865784,0.2153157740831375
1760471340931407400,7.403407470703125,3.3295631408691406,-0.2513054609298706,0.09190435707569122
1760471340941369600,7.41336962890625,3.9840927124023438,0.237508162856102,-0.06906721740961075
1760471340951331600,7.42333154296875,4.529079914093018,0.8694214224815369,-0.3545077443122864
1760471340961293600,7.43329345703125,4.832207202911377,1.1376118659973145,-0.7545039057731628
1760471340971255600,7.443255615234375,4.995355129241943,1.5410208702087402,-1.078939437866211
1760471340981218600,7.453218505859375,5.3343825340271,2.1458916664123535,-1.2402700185775757
1760471340991180500,7.4631806640625,5.841191291809082,2.725830316543579,-1.2995389699935913
1760471341001142500,7.473142578125,6.517944812774658,3.038132905960083,-1.3320257663726807
1760471341011104500,7.4831044921875,7.254904747009277,2.960273265838623,-1.3715852499008179
1760471341021066500,7.49306640625,7.919156551361084,2.5930047035217285,-1.432281255722046
1760471341031028500,7.503028564453125,8.517657279968262,2.1736984252929688,-1.5354009866714478
1760471341040990500,7.512990478515625,9.093183517456055,1.8050978183746338,-1.635712742805481
1760471341050952400,7.522952392578125,9.501068115234375,1.8543415069580078,-1.6313986778259277
1760471341060914400,7.53291455078125,9.619803428649902,2.220827341079712,-1.5874961614608765
1760471341070877400,7.54287744140625,9.575576782226562,2.7956063747406006,-1.5922867059707642
1760471341080839700,7.552839599609375,9.142724990844727,3.540388822555542,-1.6677377223968506
1760471341090801400,7.562801513671875,8.158184051513672,4.301731586456299,-1.8607522249221802
1760471341100763600,7.572763671875,7.086928367614746,4.615713596343994,-2.1743099689483643
1760471341110725600,7.5827255859375,6.518732070922852,4.425363063812256,-2.603360891342163
1760471341120687400,7.592687255859375,6.182221412658691,3.9338526725769043,-3.017655849456787
1760471341130649600,7.602649658203125,6.0736823081970215,3.2650251388549805,-3.265573501586914
1760471341140611300,7.612611328125,6.140475273132324,2.606717824935913,-3.2263641357421875
1760471341150573600,7.622573486328125,5.846012115478516,2.0120491981506348,-2.933300256729126
1760471341160536600,7.63253662109375,5.4269938468933105,1.4727823734283447,-2.5263478755950928
1760471341170498600,7.64249853515625,5.0609941482543945,0.9535248279571533,-2.108785629272461
1760471341180461000,7.6524609375,4.736781597137451,0.5041624903678894,-1.680242657661438
1760471341190423300,7.66242333984375,4.2396111488342285,0.4839235246181488,-1.2220678329467773
1760471341200385000,7.672385009765625,3.5739619731903076,0.6450448036193848,-0.8296478986740112
1760471341210347300,7.68234716796875,2.904179334640503,0.6986267566680908,-0.5850765109062195
1760471341220309200,7.692309326171875,2.293260097503662,0.5807738900184631,-0.48607563972473145
1760471341230271000,7.70227099609375,1.5683385133743286,0.443448543548584,-0.45272061228752136
1760471341240233200,7.712233154296875,0.6953364610671997,0.1707879900932312,-0.417968213558197
1760471341250195200,7.7221953125,-0.138153076171875,-0.35070714354515076,-0.33572447299957275
1760471341260158200,7.732158203125,-0.8917405605316162,-0.9160973429679871,-0.16880473494529724
1760471341270120200,7.7421201171875,-1.6612974405288696,-1.3111381530761719,0.055861134082078934
1760471341280082200,7.752082275390625,-2.473114490509033,-1.5634065866470337,0.27666622400283813
1760471341290044400,7.76204443359375,-3.2056925296783447,-1.8705521821975708,0.4178483784198761
1760471341300006100,7.772006103515625,-3.865433692932129,-2.2732131481170654,0.4553139805793762
1760471341309968100,7.781968017578125,-4.467089653015137,-2.581368923187256,0.4372771978378296
1760471341319930000,7.79193017578125,-4.982583999633789,-2.720094680786133,0.4037162959575653
1760471341329892000,7.80189208984375,-5.400604724884033,-2.8154592514038086,0.36339232325553894
1760471341339854300,7.811854248046875,-5.738921642303467,-2.789867401123047,0.3461611270904541
1760471341349817300,7.8218173828125,-6.0596795082092285,-2.702564239501953,0.41326162219047546
1760471341359779000,7.831779052734375,-6.297665596008301,-2.7698986530303955,0.5566749572753906
1760471341369741300,7.8417412109375,-6.4708943367004395,-2.970212936401367,0.7682188749313354
1760471341379703300,7.851703369140625,-6.734400272369385,-3.256895065307617,1.011897325515747
1760471341389665000,7.8616650390625,-7.089819431304932,-3.555847644805908,1.2313228845596313
1760471341399627300,7.871627197265625,-7.327500343322754,-4.107602119445801,1.4133944511413574
1760471341409589200,7.88158935546875,-7.387811183929443,-4.803149700164795,1.5727989673614502
1760471341419551200,7.89155126953125,-7.416729927062988,-5.204013824462891,1.7128775119781494
1760471341429513200,7.90151318359375,-7.436368942260742,-5.084146022796631,1.762723684310913
1760471341439476200,7.911476318359375,-7.421292304992676,-4.440638065338135,1.6471467018127441
1760471341449438200,7.921438232421875,-7.384849548339844,-3.5653016567230225,1.3385229110717773
1760471341459400200,7.931400146484375,-7.227103233337402,-2.697946786880493,0.8765981197357178
1760471341469362200,7.941362060546875,-7.010280609130859,-1.8104091882705688,0.3900122046470642
1760471341479324200,7.95132421875,-6.841947555541992,-1.0780723094940186,-0.040414534509181976
1760471341489286100,7.9612861328125,-6.636007308959961,-0.5524384379386902,-0.31808316707611084
1760471341499248400,7.971248291015625,-6.339909553527832,-0.27065280079841614,-0.4178355932235718
1760471341509210000,7.981210205078125,-5.976328372955322,-0.16509920358657837,-0.37862375378608704
1760471341519172000,7.991172119140625,-5.587968349456787,-0.23877689242362976,-0.2580491304397583
1760471341529134300,8.00113427734375,-5.01716423034668,-0.4899534583091736,-0.09981288015842438
1760471341539097300,8.011097412109375,-4.271484851837158,-0.7315279841423035,0.05686088651418686
1760471341549059000,8.02105908203125,-3.6740658283233643,-0.7583804130554199,0.24019183218479156
1760471341559021300,8.031021240234375,-2.9899492263793945,-0.798876166343689,0.43450644612312317
1760471341568983000,8.040983154296875,-1.9405744075775146,-1.0064799785614014,0.527275800704956
1760471341578945300,8.0509453125,-0.6884913444519043,-1.0189064741134644,0.5653297305107117
1760471341588907300,8.0609072265625,0.37088218331336975,-0.5110611319541931,0.5496769547462463
1760471341598869000,8.070868896484376,1.3487064838409424,0.26392433047294617,0.45588523149490356
1760471341608831200,8.080831298828125,2.2656211853027344,0.9074178338050842,0.2854336202144623
1760471341618793200,8.090793212890626,3.0669426918029785,1.3318700790405273,0.11653593182563782
1760471341628755200,8.100755126953125,3.7734146118164062,1.693852424621582,-0.01363352034240961
1760471341638718200,8.11071826171875,4.446115016937256,2.1038317680358887,-0.1050124391913414
1760471341648680200,8.12068017578125,5.0928754806518555,2.541995048522949,-0.18854089081287384
1760471341658642200,8.13064208984375,5.65047550201416,2.964837074279785,-0.28677690029144287
1760471341668604200,8.140604248046875,6.104409217834473,3.3511643409729004,-0.40469369292259216
1760471341678566100,8.150566162109374,6.5239410400390625,3.6427547931671143,-0.5249700546264648
1760471341688528400,8.1605283203125,6.885430335998535,3.7400197982788086,-0.6356328725814819
1760471341698490000,8.170489990234374,7.222848415374756,3.677191972732544,-0.7272459268569946
1760471341708452400,8.180452392578125,7.695189476013184,3.632129430770874,-0.8257450461387634
1760471341718414300,8.190414306640625,8.126777648925781,3.8540706634521484,-0.8976935148239136
1760471341728376000,8.2003759765625,8.231562614440918,4.127490997314453,-0.9163702726364136
1760471341738339000,8.210339111328125,8.038046836853027,4.162461280822754,-0.8097261190414429
1760471341748301300,8.22030126953125,7.7031402587890625,3.868705987930298,-0.5868443250656128
1760471341758263000,8.230262939453125,7.375393390655518,3.4365334510803223,-0.3421914279460907
1760471341768225300,8.240225341796876,7.358710289001465,3.2358405590057373,-0.22267594933509827
1760471341778187300,8.250187255859375,7.433079719543457,3.3024399280548096,-0.30293935537338257
1760471341788149000,8.26014892578125,7.246142864227295,3.2387990951538086,-0.5589554309844971
1760471341798111200,8.270111328125,6.929407596588135,2.7977969646453857,-0.9302871823310852
1760471341808073200,8.2800732421875,6.573703289031982,2.203866958618164,-1.2759628295898438
1760471341818035200,8.29003515625,6.167791366577148,1.8285870552062988,-1.4257097244262695
1760471341827997200,8.2999970703125,5.713482856750488,1.7304728031158447,-1.3976823091506958
1760471341837960200,8.309960205078125,5.235937595367432,1.6924539804458618,-1.2367559671401978
1760471341847922200,8.319922119140625,4.834003925323486,1.5055608749389648,-0.9487287402153015
1760471341857884200,8.32988427734375,4.4329400062561035,1.295443058013916,-0.5382802486419678
1760471341867846100,8.33984619140625,3.9402976036071777,1.0158499479293823,-0.10526197403669357
1760471341877808000,8.34980810546875,3.4800004959106445,0.7091822028160095,0.2551769018173218
1760471341887770000,8.35977001953125,2.9576385021209717,0.5249985456466675,0.5063065886497498
1760471341897732400,8.369732421875,2.2860193252563477,0.44986143708229065,0.6223730444908142
1760471341907694000,8.379694091796875,1.5756627321243286,0.40231576561927795,0.6073996424674988
1760471341917656000,8.389656005859376,0.9915052652359009,0.30699989199638367,0.4722583591938019
1760471341927618300,8.399618408203125,0.38736796379089355,0.12376614660024643,0.32085153460502625
1760471341937581300,8.409581298828124,-0.41660839319229126,-0.2539507746696472,0.16727128624916077
1760471341947543000,8.41954296875,-1.3972924947738647,-0.8309669494628906,-0.0030660973861813545
1760471341957505300,8.42950537109375,-2.399750232696533,-1.4651875495910645,-0.17304767668247223
1760471341967467300,8.43946728515625,-3.3099591732025146,-2.0664472579956055,-0.2847963273525238
1760471341977429200,8.44942919921875,-4.050321102142334,-2.534529209136963,-0.29424574971199036
1760471341987391200,8.45939111328125,-4.638184547424316,-2.801206111907959,-0.1807495355606079
1760471341997353000,8.46935302734375,-5.114995002746582,-2.9856679439544678,-0.011812717653810978
1760471342007315200,8.479315185546875,-5.547770023345947,-3.1624772548675537,0.12203456461429596
1760471342017277200,8.489277099609374,-6.0694193840026855,-3.1961510181427,0.17566822469234467
1760471342027239200,8.4992392578125,-6.703792095184326,-3.0622947216033936,0.15739122033119202
1760471342037202200,8.5092021484375,-7.373746395111084,-2.6958823204040527,0.16016517579555511
1760471342047164200,8.5191640625,-7.82141637802124,-2.4599204063415527,0.23053520917892456
1760471342057126400,8.52912646484375,-7.957606315612793,-2.4817419052124023,0.30370715260505676
1760471342067088100,8.539088134765626,-7.9665656089782715,-2.5253653526306152,0.3366866707801819
1760471342077050000,8.549050048828125,-8.135446548461914,-2.4282386302948,0.34060606360435486
1760471342087012400,8.559012451171874,-8.507490158081055,-2.3516533374786377,0.3405059278011322
1760471342096974000,8.56897412109375,-8.797721862792969,-2.509573459625244,0.3754143714904785
1760471342106936300,8.578936279296874,-8.913331985473633,-3.006683349609375,0.49427708983421326
1760471342116898300,8.588898193359375,-8.914350509643555,-3.494300603866577,0.7320089936256409
1760471342126860000,8.598860107421874,-8.793974876403809,-3.7660019397735596,1.0713657140731812
1760471342136822300,8.608822265625,-8.407190322875977,-3.791088581085205,1.446898341178894
1760471342146784300,8.6187841796875,-7.875401973724365,-3.515087127685547,1.7757254838943481
1760471342156747000,8.6287470703125,-7.300761699676514,-3.1097986698150635,1.944594144821167
1760471342166709200,8.638709228515625,-6.739136695861816,-2.6021416187286377,1.8442877531051636
1760471342176671200,8.648671142578126,-6.140542507171631,-1.9981169700622559,1.4895834922790527
1760471342186632700,8.6586328125,-5.507535457611084,-1.2120064496994019,0.9630922675132751
1760471342196594700,8.6685947265625,-4.884576797485352,-0.27945587038993835,0.4057618975639343
1760471342206556700,8.678556640625,-4.2888007164001465,0.5142468214035034,-0.07336343079805374
1760471342216518700,8.6885185546875,-3.665599822998047,0.9428532719612122,-0.4225536584854126
1760471342226480600,8.698480712890625,-2.9614102840423584,0.9700148701667786,-0.6380451917648315
1760471342236443000,8.70844287109375,-2.1582558155059814,0.7377054691314697,-0.6834150552749634
1760471342246404600,8.718404541015625,-1.3764420747756958,0.44566935300827026,-0.5617027282714844
1760471342256366800,8.728366943359376,-0.6074010133743286,0.17464131116867065,-0.3321409225463867
1760471342266329900,8.738329833984375,0.15660852193832397,-0.02395087294280529,-0.09709432721138
1760471342276291600,8.74829150390625,0.9173277020454407,-0.030056701973080635,0.043835632503032684
1760471342286253600,8.758253662109375,1.6373865604400635,0.08496389538049698,0.07807908952236176
1760471342296215800,8.7682158203125,2.285036325454712,0.27091777324676514,0.01907861977815628
1760471342306177500,8.778177490234375,2.8589775562286377,0.4912605285644531,-0.07418634742498398
1760471342316139800,8.788139892578124,3.374361991882324,0.7780299782752991,-0.15212774276733398
1760471342326101800,8.798101806640625,3.905162811279297,1.0892640352249146,-0.20645436644554138
1760471342336063700,8.808063720703124,4.44230318069458,1.4067256450653076,-0.25160080194473267
1760471342346025700,8.818025634765625,4.962619781494141,1.7321017980575562,-0.2889583110809326
1760471342355987700,8.82798779296875,5.4571919441223145,2.0675859451293945,-0.3037191331386566
1760471342365949700,8.83794970703125,5.906214237213135,2.436138868331909,-0.290459007024765
1760471342375912700,8.84791259765625,6.277624607086182,2.862647533416748,-0.2927120327949524
1760471342385874700,8.857874755859376,6.561000823974609,3.292188882827759,-0.35848572850227356
1760471342395836700,8.867836669921875,6.825402736663818,3.5844428539276123,-0.46299001574516296
1760471342405798700,8.877798583984376,6.947883605957031,3.561357259750366,-0.6018765568733215
1760471342415760600,8.8877607421875,7.014805793762207,3.29669451713562,-0.7719883322715759
1760471342425722600,8.89772265625,7.145923614501953,3.1413540840148926,-0.948462188243866
1760471342435684600,8.9076845703125,7.2570061683654785,3.0366883277893066,-1.0990732908248901
1760471342445646800,8.917646728515624,7.340993881225586,3.1348538398742676,-1.2169783115386963
1760471342455608600,8.927608642578125,7.303123950958252,3.297818183898926,-1.3132824897766113
1760471342465570800,8.93757080078125,7.240809917449951,3.3270912170410156,-1.427711844444275
1760471342475532800,8.94753271484375,7.161440372467041,2.9889159202575684,-1.5912976264953613
1760471342485495800,8.957495849609375,7.27124547958374,2.4522476196289062,-1.7480978965759277
1760471342495457500,8.96745751953125,7.3721842765808105,2.1247198581695557,-1.7314879894256592
1760471342505419800,8.977419677734375,7.329815864562988,2.0811703205108643,-1.544954538345337
1760471342515381500,8.987381591796876,7.0214338302612305,2.312039852142334,-1.2979735136032104
1760471342525343700,8.99734375,6.475013256072998,2.394362688064575,-1.0564630031585693
1760471342535305700,9.0073056640625,5.931712627410889,2.106947898864746,-0.8262372016906738
1760471342545267500,9.017267333984375,5.512701988220215,1.6756007671356201,-0.563222348690033
1760471342555229700,9.027229736328126,5.236233711242676,1.4678784608840942,-0.28105032444000244
1760471342565191700,9.037191650390625,4.83805513381958,1.5025837421417236,-0.05541691929101944
1760471342575153700,9.047153564453126,4.260513782501221,1.3620686531066895,0.04237808287143707
1760471342585115600,9.05711572265625,3.67177152633667,0.8584105968475342,0.010783405043184757
1760471342595077600,9.06707763671875,3.1164000034332275,0.36275583505630493,-0.0767831951379776
1760471342605041000,9.077041015625,2.507875919342041,0.06016320362687111,-0.1585981696844101
1760471342615002600,9.087002685546874,1.8197928667068481,-0.11718068271875381,-0.22952400147914886
1760471342624964600,9.096964599609375,1.0602257251739502,-0.1858108788728714,-0.3015987277030945
1760471342634926800,9.1069267578125,0.2580379247665405,-0.3292841613292694,-0.36927738785743713
1760471342644888600,9.116888671875,-0.5595381259918213,-0.5323358178138733,-0.3863013684749603
1760471342654850800,9.126850830078125,-1.3498642444610596,-0.6959412693977356,-0.3343556225299835
1760471342664812800,9.136812744140625,-2.1387619972229004,-0.7251249551773071,-0.2563020884990692
1760471342674774500,9.1467744140625,-2.953540802001953,-0.7025871872901917,-0.1831253468990326
1760471342684736800,9.15673681640625,-3.754249334335327,-0.8906968832015991,-0.11105408519506454
1760471342694698800,9.16669873046875,-4.433696746826172,-1.3260807991027832,-0.025673139840364456
1760471342704660700,9.17666064453125,-5.00052547454834,-1.8427934646606445,0.07792595773935318
1760471342714622700,9.186622802734375,-5.524514675140381,-2.368572235107422,0.1835261583328247
1760471342724585700,9.196585693359374,-6.087867736816406,-2.754274845123291,0.24748489260673523
1760471342734547700,9.206547607421875,-6.7002458572387695,-2.8448565006256104,0.25714126229286194
1760471342744509700,9.216509765625,-7.208022117614746,-2.9505832195281982,0.23718884587287903
1760471342754471700,9.2264716796875,-7.637423038482666,-2.9066128730773926,0.24655145406723022
1760471342764433700,9.23643359375,-8.005743026733398,-2.732901096343994,0.30626219511032104
1760471342774395600,9.246395751953125,-8.333295822143555,-2.5076613426208496,0.4133604168891907
1760471342784358000,9.25635791015625,-8.707362174987793,-2.277853012084961,0.5980639457702637
1760471342794319600,9.266319580078125,-8.971400260925293,-2.2680187225341797,0.8526837229728699
1760471342804281600,9.276281494140624,-9.11474323272705,-2.2137186527252197,1.1851942539215088
1760471342814243800,9.286243896484375,-9.010186195373535,-2.1072092056274414,1.5468193292617798
1760471342824205600,9.29620556640625,-8.604344367980957,-2.240020751953125,1.8194069862365723
1760471342834167800,9.306167724609375,-7.991964340209961,-2.506648540496826,1.958106279373169
1760471342844129800,9.3161298828125,-7.373772621154785,-2.662752389907837,1.9577927589416504
1760471342854092500,9.326092529296876,-6.860745429992676,-2.5811874866485596,1.853583812713623
1760471342864054800,9.3360546875,-6.56848669052124,-2.1872026920318604,1.5973269939422607
1760471342874016800,9.346016845703126,-6.341805458068848,-1.617329716682434,1.1207636594772339
1760471342883978500,9.355978515625,-6.007986068725586,-0.9176744222640991,0.5223217606544495
1760471342893940700,9.365940673828124,-5.477198600769043,-0.2176004946231842,-0.00833809096366167
1760471342903902700,9.37590283203125,-4.768506050109863,0.3338261842727661,-0.32647690176963806
1760471342913864700,9.38586474609375,-3.9991273880004883,0.6381447911262512,-0.40230271220207214
1760471342923826700,9.39582666015625,-3.2811124324798584,0.6444988250732422,-0.32120731472969055
1760471342933788700,9.40578857421875,-2.6036229133605957,0.3982051610946655,-0.1793133020401001
1760471342943750700,9.415750732421875,-1.9244492053985596,0.06443598121404648,-0.03867069631814957
1760471342953712600,9.425712646484374,-1.2413241863250732,-0.16104720532894135,0.08509945124387741
1760471342963675000,9.4356748046875,-0.6160154938697815,-0.21230027079582214,0.16533063352108002
1760471342973636600,9.44563671875,-0.02407258003950119,-0.12462262064218521,0.16914056241512299
1760471342983599600,9.455599609375,0.5779850482940674,0.05646354332566261,0.11606109142303467
1760471342993561900,9.465561767578125,1.1744470596313477,0.3037053048610687,0.024333301931619644
1760471343003523600,9.475523681640626,1.7914866209030151,0.49971261620521545,-0.0914289802312851
1760471343013485600,9.485485595703125,2.413736581802368,0.6528744697570801,-0.22485467791557312
1760471343023447800,9.49544775390625,2.997443675994873,0.7959511876106262,-0.3628580868244171
1760471343033409500,9.505409423828125,3.545469284057617,0.8912875652313232,-0.4910235106945038
1760471343043371800,9.515371826171876,4.08676815032959,0.9325671195983887,-0.5727631449699402
1760471343053333800,9.525333740234375,4.590299129486084,0.973486065864563,-0.6073434948921204
1760471343063295500,9.53529541015625,5.067667484283447,1.0066198110580444,-0.6206499338150024
1760471343073257700,9.5452578125,5.610834121704102,1.1100367307662964,-0.6446588635444641
1760471343083219700,9.5552197265625,6.147937297821045,1.3389934301376343,-0.7400583624839783
1760471343093181700,9.565181640625,6.6537299156188965,1.5548269748687744,-0.9173293113708496
1760471343103143700,9.575143798828124,7.044156551361084,1.8287327289581299,-1.172247052192688
1760471343113106700,9.585106689453125,7.287052631378174,2.1275739669799805,-1.4849210977554321
1760471343123069000,9.59506884765625,7.348989009857178,2.282287836074829,-1.8182073831558228
1760471343133030700,9.60503076171875,7.324347972869873,2.1572229862213135,-2.154977798461914
1760471343142992600,9.61499267578125,7.366390705108643,2.06333327293396,-2.47878360748291
1760471343152954600,9.62495458984375,7.3852152824401855,2.2790045738220215,-2.696837902069092
1760471343162916600,9.63491650390625,7.393745422363281,2.5195913314819336,-2.758636474609375
1760471343172878800,9.64487890625,7.4206929206848145,2.7434229850769043,-2.6186327934265137
1760471343182844700,9.6548447265625,7.201497554779053,2.716517686843872,-2.287174701690674
1760471343192806400,9.664806396484375,6.8297200202941895,2.3153460025787354,-1.853349208831787
1760471343202768600,9.6747685546875,6.478085041046143,1.7002973556518555,-1.444209098815918
1760471343212730600,9.684730712890625,6.226962566375732,1.4030784368515015,-1.101184368133545
1760471343222692600,9.694692626953126,5.83268404006958,1.540212869644165,-0.8156042695045471
1760471343232654600,9.704654541015625,5.307736873626709,1.6962684392929077,-0.6381120085716248
1760471343242616600,9.714616455078126,4.81138277053833,1.6954854726791382,-0.5789778828620911
1760471343252579300,9.724579345703125,4.32808256149292,1.5389587879180908,-0.5787419080734253
1760471343262541600,9.73454150390625,3.8492581844329834,1.2686606645584106,-0.5877780318260193
1760471343272503600,9.744503662109375,3.378797769546509,0.9856724143028259,-0.5906092524528503
1760471343282465500,9.754465576171874,2.898864984512329,0.6519300937652588,-0.6011217832565308
1760471343292427500,9.764427490234375,2.3368256092071533,0.38037344813346863,-0.5990937948226929
1760471343302389500,9.774389404296874,1.642059564590454,0.14457476139068604,-0.5426970720291138
1760471343312351500,9.7843515625,0.866654634475708,-0.08154971897602081,-0.39807865023612976
1760471343322313500,9.7943134765625,0.12429531663656235,-0.27739033102989197,-0.171981081366539
1760471343332275700,9.804275634765625,-0.8053247332572937,-0.33617961406707764,0.07741276919841766
1760471343342237400,9.814237548828125,-1.800541877746582,-0.4897976517677307,0.22656390070915222
1760471343352199700,9.82419970703125,-2.7591025829315186,-0.7345919609069824,0.3061836361885071
1760471343362161700,9.83416162109375,-3.7135980129241943,-0.9971951246261597,0.336190789937973
1760471343372123400,9.844123291015626,-4.5938568115234375,-1.3821033239364624,0.34946027398109436
1760471343382085600,9.854085693359375,-5.323416709899902,-1.8084261417388916,0.3821801245212555
1760471343392048600,9.864048583984374,-5.906078338623047,-2.1400063037872314,0.44097474217414856
1760471343402010600,9.8740107421875,-6.435055732727051,-2.2489700317382812,0.5292662382125854
1760471343411972600,9.88397265625,-6.90760612487793,-2.3343515396118164,0.6200496554374695
1760471343421934600,9.8939345703125,-7.356065273284912,-2.326934576034546,0.7202255725860596
1760471343431896600,9.903896484375,-7.707050800323486,-2.32381534576416,0.8253903388977051
1760471343441858600,9.913858642578125,-7.959139823913574,-2.313129186630249,0.8923642635345459
1760471343451820500,9.923820556640624,-8.223124504089355,-2.2363839149475098,0.9073315262794495
1760471343461782500,9.933782470703125,-8.517817497253418,-2.2575340270996094,0.868512749671936
1760471343471744500,9.94374462890625,-8.876790046691895,-2.233210563659668,0.8417447805404663
1760471343481706500,9.95370654296875,-9.176560401916504,-2.371398687362671,0.9096325039863586
1760471343491668500,9.96366845703125,-9.228597640991211,-2.520148277282715,1.0839704275131226
1760471343501630500,9.97363037109375,-9.06074333190918,-2.2603068351745605,1.3430113792419434
1760471343511592700,9.9835927734375,-8.815696716308594,-1.9399371147155762,1.5663336515426636
1760471343521554400,9.993554443359375,-8.20408821105957,-1.8551167249679565,1.6364072561264038
1760471343531517400,10.003517333984375,-7.514097690582275,-1.8291889429092407,1.5270099639892578
1760471343541479700,10.013479736328126,-6.754509449005127,-1.7211112976074219,1.2763023376464844
1760471343551441700,10.023441650390625,-6.031686305999756,-1.487765908241272,0.9390108585357666
1760471343561403400,10.0334033203125,-5.426292896270752,-1.2255030870437622,0.5997380018234253
1760471343571365600,10.04336572265625,-4.891019821166992,-1.0020908117294312,0.34045717120170593
1760471343581327600,10.05332763671875,-4.321476459503174,-0.7989568710327148,0.18437011539936066
1760471343591289600,10.06328955078125,-3.679781913757324,-0.717953622341156,0.11184290796518326
1760471343601251600,10.07325146484375,-2.9813380241394043,-0.6975743174552917,0.13700765371322632
1760471343611213600,10.083213623046875,-2.2327420711517334,-0.6928836703300476,0.2667504549026489
1760471343621175600,10.093175537109374,-1.4801673889160156,-0.6387631893157959,0.4269760847091675
1760471343631137500,10.103137451171875,-0.7838412523269653,-0.5367457270622253,0.5031640529632568
1760471343641099500,10.113099609375,-0.15402258932590485,-0.38173484802246094,0.4588991403579712
1760471343651061500,10.1230615234375,0.5226999521255493,-0.12794119119644165,0.32328590750694275
1760471343661023700,10.133023681640625,1.284676432609558,0.16489307582378387,0.13885055482387543
1760471343670985500,10.1429853515625,2.0852651596069336,0.407175213098526,-0.06429164111614227
1760471343680947500,10.152947509765625,2.885051727294922,0.6403906345367432,-0.25201278924942017
1760471343690910500,10.162910400390626,3.6052699089050293,0.8499484062194824,-0.38213005661964417
1760471343700872700,10.172872802734375,4.260540962219238,1.022589921951294,-0.46113619208335876
1760471343710834400,10.18283447265625,4.89160680770874,1.177165150642395,-0.5128409266471863
1760471343720796700,10.192796630859375,5.512184143066406,1.286253809928894,-0.5313786864280701
1760471343730758700,10.202758544921876,6.109663486480713,1.3481049537658691,-0.5250680446624756
1760471343740720400,10.212720458984375,6.6073126792907715,1.4130256175994873,-0.5446649193763733
1760471343750682600,10.2226826171875,7.055133819580078,1.538588047027588,-0.613946795463562
1760471343760644600,10.23264453125,7.368889808654785,1.8364487886428833,-0.7633922100067139
1760471343770606600,10.242606689453124,7.522522926330566,2.2300338745117188,-0.9319759011268616
1760471343780568600,10.252568603515625,7.4478912353515625,2.419675350189209,-1.094164490699768
1760471343790530600,10.262530517578124,7.2360053062438965,2.430952548980713,-1.293869137763977
1760471343800492500,10.272492431640625,7.113436698913574,2.1838831901550293,-1.5190225839614868
1760471343810454500,10.28245458984375,7.326591491699219,1.7029772996902466,-1.5556291341781616
1760471343820416500,10.29241650390625,7.6488037109375,1.71886146068573,-1.3570749759674072
1760471343830378500,10.30237841796875,7.688102722167969,2.2356152534484863,-1.0762361288070679
1760471343840340700,10.3123408203125,7.482882022857666,2.879836320877075,-0.7668201923370361
1760471343850303700,10.3223037109375,7.104094982147217,3.195631980895996,-0.5398179292678833
1760471343860265500,10.332265380859376,6.832577228546143,2.871767520904541,-0.4899952709674835
1760471343870227500,10.3422275390625,6.879647254943848,2.445725917816162,-0.5751125812530518
1760471343880189700,10.352189697265626,6.786299228668213,2.404284954071045,-0.6818504333496094
1760471343890151400,10.3621513671875,6.466269016265869,2.4071061611175537,-0.7445338368415833
1760471343900113700,10.37211376953125,6.069627285003662,2.2239770889282227,-0.7071704864501953
1760471343910075600,10.38207568359375,5.6000895500183105,1.817652940750122,-0.5206117630004883
1760471343920037600,10.39203759765625,5.097809791564941,1.4032254219055176,-0.21566490828990936
1760471343929999600,10.40199951171875,4.600071907043457,1.097595453262329,0.13188746571540833
1760471343939961600,10.411961669921874,4.143291473388672,0.7515642642974854,0.44909897446632385
1760471343949923600,10.421923583984375,3.7186455726623535,0.5163211226463318,0.6845945715904236
1760471343959885600,10.431885498046874,3.227585792541504,0.3631339967250824,0.8176075220108032
1760471343969847600,10.44184765625,2.63045597076416,0.1757798194885254,0.8898332118988037
1760471343979809500,10.4518095703125,1.9519649744033813,-0.01900724694132805,0.8970389366149902
1760471343989771500,10.461771484375,1.2688097953796387,-0.031372569501399994,0.8456332683563232
1760471343999734500,10.471734619140625,0.5365664958953857,0.02371278591454029,0.7408592104911804
1760471344009696500,10.481696533203126,-0.21434372663497925,0.03377474099397659,0.5592190623283386
1760471344019658500,10.491658447265625,-0.9199548959732056,-0.0578148290514946,0.3290631175041199
1760471344029620700,10.501620849609376,-1.6131911277770996,-0.2596006691455841,0.10813339054584503
1760471344039582500,10.51158251953125,-2.3675310611724854,-0.5918673276901245,-0.0399966835975647
1760471344049544400,10.52154443359375,-3.1312248706817627,-1.1972073316574097,-0.07393015176057816
1760471344059506700,10.531506591796875,-3.811762571334839,-1.992491602897644,0.023925572633743286
1760471344069468400,10.541468505859376,-4.349252700805664,-2.7884600162506104,0.22894476354122162
1760471344079430700,10.5514306640625,-4.780030250549316,-3.3586220741271973,0.4741992652416229
1760471344089392600,10.561392578125,-5.220049858093262,-3.5904765129089355,0.6800618767738342
1760471344099354600,10.571354736328125,-5.650674819946289,-3.6721198558807373,0.7541875243186951
1760471344109316600,10.581316650390624,-6.0490288734436035,-3.557828664779663,0.6514033675193787
1760471344119278600,10.591278564453125,-6.521642684936523,-3.1545512676239014,0.3969404399394989
1760471344129240600,10.601240478515624,-7.042333126068115,-2.660578966140747,0.07519888132810593
1760471344139202600,10.61120263671875,-7.593384265899658,-2.0325934886932373,-0.15575364232063293
1760471344149164800,10.621164794921874,-8.041267395019531,-1.5251497030258179,-0.22433190047740936
1760471344159126500,10.63112646484375,-8.340872764587402,-1.2985115051269531,-0.1273406445980072
1760471344169088500,10.641088623046874,-8.539800643920898,-1.3772848844528198,0.1497090607881546
1760471344179051500,10.651051513671876,-8.672205924987793,-1.7125550508499146,0.5687529444694519
1760471344189010400,10.661010498046876,-8.703801155090332,-2.142946720123291,1.0188732147216797
1760471344198972400,10.670972412109375,-8.641822814941406,-2.4950766563415527,1.375906229019165
1760471344208934700,10.6809345703125,-8.582832336425781,-2.5848727226257324,1.5984742641448975
1760471344218896400,10.690896484375,-8.522913932800293,-2.591531276702881,1.7256511449813843
1760471344228858400,10.7008583984375,-8.31309700012207,-2.5855746269226074,1.7618845701217651
1760471344238820600,10.710820556640625,-7.939577579498291,-2.251784086227417,1.7019304037094116
1760471344248782300,10.7207822265625,-7.507813453674316,-1.695257306098938,1.53842294216156
1760471344258744600,10.73074462890625,-7.030922889709473,-1.0777714252471924,1.280563473701477
1760471344268706600,10.74070654296875,-6.266390323638916,-0.47969016432762146,0.9379621148109436
1760471344278668300,10.750668212890625,-5.442592620849609,0.12637923657894135,0.5593743324279785
1760471344288630500,10.760630615234374,-4.629232406616211,0.6937515735626221,0.19105596840381622
1760471344298592300,10.77059228515625,-3.893777370452881,1.1541657447814941,-0.08695647120475769
1760471344308554500,10.780554443359375,-3.29331374168396,1.3771533966064453,-0.2655999958515167
1760471344318516500,10.7905166015625,-2.7179653644561768,1.3130319118499756,-0.3906577527523041
1760471344328478500,10.800478515625,-2.1233413219451904,1.065326452255249,-0.47781848907470703
1760471344338440400,10.8104404296875,-1.531616449356079,0.7595143914222717,-0.5255277156829834
1760471344348402400,10.82040234375,-0.9033128023147583,0.4122123122215271,-0.5144529342651367
1760471344358364400,10.830364501953126,-0.21195566654205322,0.1244998499751091,-0.43966418504714966
1760471344368327400,10.840327392578125,0.4741215109825134,-0.02184111624956131,-0.3227578103542328
1760471344378289400,10.850289306640626,1.135179877281189,0.05361742153763771,-0.1896631419658661
1760471344388251600,10.860251708984375,1.7465364933013916,0.27923455834388733,-0.06969226151704788
1760471344398213400,10.87021337890625,2.349379062652588,0.4921654760837555,0.013953366316854954
1760471344408175400,10.88017529296875,2.9166266918182373,0.7082972526550293,0.06467273831367493
1760471344418137600,10.8901376953125,3.4596498012542725,0.9249022603034973,0.06304074823856354
1760471344428099300,10.900099365234375,4.007340908050537,1.1957290172576904,0.011710451915860176
1760471344438061600,10.9100615234375,4.594879627227783,1.4947407245635986,-0.09475287050008774
1760471344448023600,10.9200234375,5.232491493225098,1.7890762090682983,-0.2334449738264084
1760471344457985300,10.9299853515625,5.810940265655518,2.070338487625122,-0.3764095902442932
1760471344467947500,10.939947509765625,6.2983927726745605,2.3267662525177,-0.5213534832000732
1760471344477909200,10.9499091796875,6.748683929443359,2.5242679119110107,-0.6542571783065796
1760471344487871500,10.95987158203125,7.164939880371094,2.534925699234009,-0.7983344793319702
1760471344497833500,10.96983349609375,7.561827182769775,2.3601794242858887,-0.9701815843582153
1760471344507795500,10.97979541015625,7.9021759033203125,2.0794522762298584,-1.1804075241088867
1760471344517757400,10.98975732421875,8.172725677490234,1.8369041681289673,-1.375706434249878
1760471344527719400,10.999719482421876,8.23033618927002,1.6946545839309692,-1.5426946878433228
1760471344537681400,11.009681396484375,8.06884765625,1.5813286304473877,-1.6991801261901855
1760471344547644400,11.01964453125,7.756217956542969,1.5138046741485596,-1.8340651988983154
1760471344557606400,11.0296064453125,7.3648271560668945,1.502254843711853,-2.0021886825561523
1760471344567568600,11.039568603515624,6.9872050285339355,1.736572265625,-2.2240543365478516
1760471344577530400,11.0495302734375,6.515517234802246,2.1456212997436523,-2.466799020767212
1760471344587492400,11.059492431640624,5.957733154296875,2.732842206954956,-2.7754807472229004
1760471344597454600,11.06945458984375,5.497140407562256,3.257004976272583,-3.175640821456909
1760471344607416300,11.079416259765624,5.281184673309326,3.5176570415496826,-3.619022846221924
1760471344617378600,11.089378662109375,5.229344844818115,3.5881459712982178,-3.937572479248047
1760471344627340500,11.099340576171874,5.155566215515137,3.6217360496520996,-3.947384834289551
1760471344637302300,11.10930224609375,4.962050914764404,3.390397310256958,-3.601283073425293
1760471344647264500,11.119264404296874,4.574086666107178,2.9738240242004395,-2.9061028957366943
1760471344657226200,11.129226318359375,4.1355156898498535,2.4785447120666504,-1.883770227432251
1760471344667188500,11.1391884765625,3.491802930831909,1.8758976459503174,-0.8427314758300781
1760471344677150500,11.149150390625,2.8249027729034424,1.0066519975662231,0.09202446788549423
1760471344687112400,11.159112548828125,2.168055295944214,0.03995966538786888,0.7372165322303772
1760471344697074400,11.169074462890626,1.3877718448638916,-0.5801334381103516,1.1192541122436523
1760471344707036400,11.179036376953125,0.5182764530181885,-0.9542657136917114,1.269673228263855
1760471344716998400,11.188998291015626,-0.2768619656562805,-1.298370361328125,1.2950345277786255
1760471344726960400,11.19896044921875,-1.147804617881775,-1.6578305959701538,1.2124451398849487
1760471344736923400,11.20892333984375,-1.9601163864135742,-2.09511137008667,1.1538299322128296
1760471344746885600,11.2188857421875,-2.610908031463623,-2.562612533569336,1.1376813650131226
1760471344756847400,11.228847412109374,-3.137610912322998,-2.736208200454712,1.1771832704544067
1760471344766809300,11.238809326171875,-3.6273388862609863,-2.6580493450164795,1.2434704303741455
1760471344776771600,11.248771484375,-4.132965564727783,-2.598939895629883,1.2448387145996094
1760471344786733300,11.2587333984375,-4.626547813415527,-2.7522244453430176,1.1740657091140747
1760471344796695600,11.268695556640624,-5.06329345703125,-3.0237984657287598,1.0910680294036865
1760471344806657500,11.278657470703125,-5.440402507781982,-3.207085371017456,1.0353914499282837
1760471344816619500,11.28861962890625,-5.800401210784912,-3.2022764682769775,1.040062427520752
1760471344826581500,11.29858154296875,-6.162628173828125,-3.200681686401367,1.0668599605560303
1760471344836543500,11.30854345703125,-6.54805326461792,-3.1969473361968994,1.0893588066101074
1760471344846505500,11.31850537109375,-7.004594802856445,-3.1052846908569336,1.1087777614593506
1760471344856467500,11.328467529296875,-7.477031230926514,-3.0533528327941895,1.11521577835083
1760471344866429400,11.338429443359376,-7.944660186767578,-2.865480899810791,1.133914828300476
1760471344876391400,11.348391357421875,-8.350495338439941,-2.6562705039978027,1.2086572647094727
1760471344886353400,11.358353515625,-8.630024909973145,-2.4541585445404053,1.337226390838623
1760471344896315400,11.3683154296875,-8.778005599975586,-2.4291834831237793,1.5314244031906128
1760471344906277400,11.37827734375,-8.685799598693848,-2.7171332836151123,1.7657841444015503
1760471344916239600,11.388239501953125,-8.38991641998291,-2.990696430206299,2.037639617919922
1760471344926201300,11.398201416015626,-8.010953903198242,-3.214109182357788,2.335461139678955
1760471344936163300,11.408163330078125,-7.514146327972412,-3.4672999382019043,2.631173610687256
1760471344946125600,11.41812548828125,-6.892239570617676,-3.6485161781311035,2.871440887451172
1760471344956088600,11.428088623046875,-6.437234401702881,-3.4971723556518555,3.0155906677246094
1760471344966050300,11.43805029296875,-6.053730487823486,-2.9441940784454346,2.9800362586975098
1760471344976012500,11.448012451171875,-5.446758270263672,-2.130570411682129,2.73649525642395
1760471344985974500,11.457974609375,-4.645359516143799,-1.3434853553771973,2.2904555797576904
1760471344995936500,11.4679365234375,-3.6112730503082275,-0.651914119720459,1.670677900314331
1760471345005898500,11.4778984375,-2.470095634460449,-0.1218329593539238,0.9518172144889832
1760471345015860500,11.487860595703125,-1.3751554489135742,0.16721242666244507,0.24664120376110077
1760471345025822500,11.497822509765625,-0.4174334406852722,0.30135130882263184,-0.27819645404815674
1760471345035784400,11.507784423828125,0.2686796486377716,0.27854853868484497,-0.5968567132949829
1760471345045746400,11.517746337890625,0.6506965160369873,0.28370121121406555,-0.7701353430747986
1760471345055708400,11.52770849609375,0.8327488899230957,0.3069157302379608,-0.8550776243209839
1760471345065670400,11.53767041015625,0.996437668800354,0.3249267041683197,-0.8984072804450989
1760471345075632400,11.54763232421875,1.2395057678222656,0.42804187536239624,-0.9449651837348938
1760471345085594400,11.557594482421875,1.6179225444793701,0.6309918165206909,-1.0103505849838257
1760471345095556600,11.567556640625,2.1117234230041504,0.8723916411399841,-1.0488455295562744
1760471345105518300,11.577518310546875,2.6776580810546875,1.0939778089523315,-1.027138590812683
1760471345115480300,11.587480224609376,3.3187670707702637,1.3211281299591064,-0.9511730074882507
1760471345125442600,11.597442626953125,3.9986777305603027,1.511749505996704,-0.8682802319526672
1760471345135404300,11.607404296875,4.731705188751221,1.6725658178329468,-0.841619610786438
1760471345145366500,11.617366455078125,5.433347225189209,1.9331893920898438,-0.8617874979972839
1760471345155328500,11.62732861328125,6.048964500427246,2.2557077407836914,-0.8994576334953308
1760471345165290200,11.637290283203125,6.535459995269775,2.5554418563842773,-0.9444429278373718
1760471345175253500,11.64725341796875,6.918397426605225,2.770930051803589,-0.9949665665626526
1760471345185215500,11.657215576171875,7.285905838012695,2.931576728820801,-1.068445086479187
1760471345195177500,11.667177490234375,7.608833312988281,3.047672986984253,-1.137194275856018
1760471345205139500,11.677139404296875,7.844796657562256,3.1155846118927,-1.1667470932006836
1760471345215101400,11.687101318359375,8.005772590637207,3.4168412685394287,-1.2270115613937378
1760471345225063400,11.6970634765625,8.074792861938477,4.0268235206604,-1.3666032552719116
1760471345235025400,11.707025390625,8.093591690063477,4.681759357452393,-1.6090062856674194
1760471345244987400,11.7169873046875,7.983555316925049,5.102404594421387,-1.9272068738937378
1760471345254949400,11.726949462890625,7.776865005493164,5.111425399780273,-2.286355972290039
1760471345264911400,11.736911376953126,7.578812122344971,4.941737174987793,-2.6341307163238525
1760471345274873600,11.74687353515625,7.241392612457275,4.812395095825195,-2.9452452659606934
1760471345284835300,11.75683544921875,6.678255081176758,4.604278564453125,-3.1754915714263916
1760471345294797300,11.76679736328125,6.11626672744751,4.123628616333008,-3.2832372188568115
1760471345304759600,11.776759521484376,5.555880069732666,3.53621244430542,-3.274850606918335
1760471345314721300,11.78672119140625,5.110276699066162,2.960789203643799,-3.104206085205078
1760471345324683500,11.79668359375,4.764776706695557,2.5513670444488525,-2.7388031482696533
1760471345334645500,11.8066455078125,4.387648105621338,2.2523367404937744,-2.2101356983184814
1760471345344607200,11.816607177734374,4.032607555389404,2.0455024242401123,-1.6066336631774902
1760471345354569500,11.826569580078125,3.6647286415100098,1.6131107807159424,-1.038718819618225
1760471345364531500,11.836531494140624,3.3245294094085693,0.9663495421409607,-0.5304273962974548
1760471345374493400,11.846493408203125,2.7473316192626953,0.5525223016738892,-0.15366066992282867
1760471345384455400,11.856455322265624,2.123677968978882,0.22302456200122833,0.053645383566617966
1760471345394418400,11.86641845703125,1.3334364891052246,-0.05901884660124779,0.05980527773499489
1760471345404380700,11.876380615234375,0.3107496201992035,-0.2908608615398407,0.021691180765628815
1760471345414342400,11.88634228515625,-0.8776947855949402,-0.4941093325614929,-0.017608022317290306
1760471345424304400,11.896304443359375,-2.0275769233703613,-0.7810649275779724,-0.037694647908210754
1760471345434266400,11.906266357421876,-3.0621697902679443,-1.2514337301254272,-0.07371683418750763
1760471345444228400,11.916228271484375,-3.975322961807251,-1.7444450855255127,-0.06274380534887314
1760471345454190600,11.926190673828126,-4.806762218475342,-2.1324620246887207,0.06941209733486176
1760471345464152300,11.93615234375,-5.553966045379639,-2.547285318374634,0.33774474263191223
1760471345474114300,11.9461142578125,-6.1428070068359375,-2.9930663108825684,0.6917667388916016
1760471345484076500,11.95607666015625,-6.596677780151367,-3.4134504795074463,1.0276576280593872
1760471345494038300,11.966038330078124,-6.884541988372803,-3.5933449268341064,1.2505344152450562
1760471345504000500,11.97600048828125,-7.055994510650635,-3.481398344039917,1.3404715061187744
1760471345513962500,11.98596240234375,-7.20208215713501,-3.0989434719085693,1.370155930519104
1760471345523924200,11.99592431640625,-7.2683000564575195,-2.749865770339966,1.361660122871399
1760471345533886500,12.005886474609374,-7.3046674728393555,-2.532280921936035,1.3046685457229614
1760471345543848400,12.015848388671875,-7.46695613861084,-2.3581812381744385,1.2538751363754272
1760471345553810400,12.025810546875,-7.838346481323242,-2.363508939743042,1.2357778549194336
1760471345563772400,12.0357724609375,-8.34578800201416,-2.4834394454956055,1.2182656526565552
1760471345573734400,12.045734375,-8.912772178649902,-2.7278430461883545,1.2023288011550903
1760471345583696400,12.0556962890625,-9.356618881225586,-3.1040239334106445,1.1963531970977783
1760471345593658400,12.065658447265625,-9.694870948791504,-3.3807969093322754,1.280043363571167
1760471345603620600,12.07562060546875,-9.92236614227295,-3.5315299034118652,1.4822771549224854
1760471345613582300,12.085582275390625,-9.867812156677246,-3.5561983585357666,1.6620301008224487
1760471345623544600,12.095544677734376,-9.33387279510498,-3.25776743888855,1.7135134935379028
1760471345633506600,12.105506591796875,-8.453980445861816,-2.6108689308166504,1.6040892601013184
1760471345643469300,12.11546923828125,-7.229104042053223,-1.7288333177566528,1.390259861946106
1760471345653431300,12.125431396484375,-5.918777942657471,-0.7225323915481567,1.1522208452224731
1760471345663393500,12.1353935546875,-4.875179767608643,0.2748289108276367,0.9295079112052917
1760471345673355300,12.145355224609375,-4.231173992156982,0.9554284811019897,0.7201536297798157
1760471345683317500,12.1553173828125,-3.678340435028076,1.1484639644622803,0.5067441463470459
1760471345693279500,12.165279541015625,-3.1531741619110107,1.1114915609359741,0.23236186802387238
1760471345703241500,12.175241455078124,-2.6100962162017822,0.9449766278266907,-0.05899008363485336
1760471345713203500,12.185203369140625,-2.007824182510376,0.6716428399085999,-0.22742676734924316
1760471345723165400,12.19516552734375,-1.2972944974899292,0.3826688230037689,-0.3200104832649231
1760471345733127400,12.20512744140625,-0.5158010125160217,0.1976451724767685,-0.3738825023174286
1760471345743089400,12.21508935546875,0.30615565180778503,0.07902131229639053,-0.4047895669937134
1760471345753051400,12.225051513671875,1.1519277095794678,-0.02883191406726837,-0.4266519844532013
1760471345763013400,12.235013427734375,1.9587805271148682,-0.03784831240773201,-0.46529391407966614
1760471345772975400,12.244975341796875,2.5583715438842773,0.07305476814508438,-0.5282547473907471
1760471345782937600,12.2549375,3.0243608951568604,0.24544411897659302,-0.6083594560623169
1760471345792899300,12.2648994140625,3.4402480125427246,0.42393556237220764,-0.726782500743866
1760471345802861600,12.274861572265625,3.8402254581451416,0.7051416635513306,-0.8693796396255493
1760471345812823600,12.284823486328126,4.268975734710693,1.1002147197723389,-0.9969143867492676
1760471345822785300,12.294785400390625,4.763480186462402,1.5054240226745605,-1.0773823261260986
1760471345832747500,12.30474755859375,5.226947784423828,1.876442790031433,-1.0845392942428589
1760471345842709500,12.31470947265625,5.716545581817627,2.0743627548217773,-1.0286846160888672
1760471345852671500,12.32467138671875,6.027960777282715,2.122039318084717,-0.9496696591377258
1760471345862633500,12.334633544921875,6.166778087615967,2.0887839794158936,-0.9145481586456299
1760471345872595500,12.344595458984376,6.353552341461182,1.9559756517410278,-1.0155144929885864
1760471345882557400,12.354557373046875,6.719942569732666,1.8007162809371948,-1.2181631326675415
1760471345892519400,12.36451953125,7.203519344329834,1.845527172088623,-1.4652129411697388
1760471345902481700,12.374481689453125,7.569731712341309,2.148852825164795,-1.668425440788269
1760471345912444400,12.3844443359375,7.702854633331299,2.5092227458953857,-1.7922922372817993
1760471345922406400,12.394406494140625,7.641526222229004,2.73874831199646,-1.8427119255065918
1760471345932368600,12.40436865234375,7.49089241027832,2.680711030960083,-1.8943454027175903
1760471345942330400,12.414330322265625,7.470544815063477,2.5470621585845947,-2.035964012145996
1760471345952292400,12.424292236328125,7.468808650970459,2.580263137817383,-2.1858508586883545
1760471345962254600,12.434254638671876,7.337491512298584,2.7060561180114746,-2.239837408065796
1760471345972216300,12.44421630859375,6.927454948425293,2.8626739978790283,-2.14128041267395
1760471345982178600,12.454178466796876,6.330185890197754,2.755552053451538,-1.9187449216842651
1760471345992140500,12.464140625,5.5767340660095215,2.2367820739746094,-1.554642915725708
1760471346002102300,12.474102294921876,4.982006072998047,1.5075470209121704,-1.0862823724746704
1760471346012064500,12.484064453125,4.63570499420166,1.1912317276000977,-0.5633707046508789
1760471346022026500,12.494026611328126,4.405618667602539,1.3161959648132324,-0.08100750297307968
1760471346031988500,12.503988525390625,4.164093494415283,1.4845466613769531,0.26828497648239136
