time,seconds_elapsed,z,y,x
1760471333570624500,0.04262451171875,-0.006512545980513096,-0.13720591366291046,-0.06301664561033249
1760471333580587500,0.05258740234375,0.005073802545666695,-0.11032210290431976,-0.10149985551834106
1760471333590549500,0.062549560546875,0.00545961270108819,-0.10819239169359207,-0.09760813415050507
1760471333600511500,0.072511474609375,0.00044434797018766403,-0.11024355888366699,-0.06678390502929688
1760471333610473700,0.0824736328125,-0.004732038360089064,-0.08398958295583725,-0.030614182353019714
1760471333620435500,0.092435546875,-0.012208329513669014,-0.02777237817645073,0.0011530676856637
1760471333630398500,0.1023984375,-0.018382197245955467,-0.008041340857744217,0.025989150628447533
1760471333640360700,0.112360595703125,-0.008985234424471855,-0.010930071584880352,0.035336315631866455
1760471333650322400,0.122322509765625,-0.0001757959253154695,-0.022043142467737198,0.03835060074925423
1760471333660284400,0.132284423828125,0.003684455994516611,-0.049034811556339264,0.04142202436923981
1760471333670246700,0.14224658203125,0.001714419573545456,-0.0584321990609169,0.03673088550567627
1760471333680209700,0.152209716796875,-0.004866784438490868,-0.07041722536087036,0.012416490353643894
1760471333690171400,0.16217138671875,-0.004079224541783333,-0.07180329412221909,-0.029710201546549797
1760471333700133600,0.172133544921875,0.006311630830168724,-0.0611618347465992,-0.07500790804624557
1760471333710095600,0.182095703125,0.009136566892266273,-0.04263407737016678,-0.1035822331905365
1760471333720057600,0.1920576171875,0.011826093308627605,-0.05012048780918121,-0.11784213036298752
1760471333730020600,0.2020205078125,0.0113633181899786,-0.04922139272093773,-0.12561088800430298
1760471333739982600,0.211982666015625,0.008259138092398643,-0.0499524287879467,-0.12041879445314407
1760471333749944600,0.221944580078125,0.002121363300830126,-0.0488244965672493,-0.10311238467693329
1760471333759906600,0.231906494140625,-0.00603723106905818,-0.02711920253932476,-0.07592576742172241
1760471333769868500,0.24186865234375,-0.009122248739004135,-0.0001433286815881729,-0.05171216279268265
1760471333779831300,0.251831298828125,-0.007584540173411369,0.02142534777522087,-0.03996895253658295
1760471333789793500,0.26179345703125,-0.00651282723993063,0.030804485082626343,-0.03584437817335129
1760471333799755500,0.271755615234375,-0.0053024208173155785,0.03464742749929428,-0.04607198014855385
1760471333809717500,0.281717529296875,-0.004528757184743881,0.04320034012198448,-0.06616663187742233
1760471333819679500,0.291679443359375,-0.008443870581686497,0.029007025063037872,-0.09659511595964432
1760471333829642500,0.301642578125,-0.007567217107862234,0.0010445257648825645,-0.13402076065540314
1760471333839604700,0.311604736328125,0.0009575617732480168,-0.007361209485679865,-0.17819835245609283
1760471333849566500,0.32156640625,-0.00012739503290504217,-0.004979991354048252,-0.2158936709165573
1760471333859528400,0.331528564453125,-0.03815893083810806,-0.08167077600955963,-0.2917940318584442
1760471333869490700,0.34149072265625,-0.01574697531759739,-0.14496104419231415,-0.3390088677406311
1760471333879452400,0.351452392578125,0.004785197786986828,-0.1559567004442215,-0.36103853583335876
1760471333889415400,0.36141552734375,0.004581522196531296,-0.14730167388916016,-0.3743637800216675
1760471333899377700,0.371377685546875,0.0013524391688406467,-0.10075467079877853,-0.3730204701423645
1760471333909339400,0.38133935546875,-0.00607659574598074,-0.0321032851934433,-0.3635249137878418
1760471333919301600,0.391301513671875,-0.013976596295833588,0.013991503044962883,-0.3465845584869385
1760471333929263600,0.401263671875,-0.013700280338525772,0.0473276749253273,-0.32030153274536133
1760471333939226600,0.4112265625,-0.013988434337079525,0.0715041235089302,-0.3005369007587433
1760471333949188400,0.421188232421875,-0.016060682013630867,0.08355052769184113,-0.29425299167633057
1760471333959150600,0.431150634765625,-0.022608064115047455,0.09343831241130829,-0.3114631474018097
1760471333969112600,0.441112548828125,-0.02196049503982067,0.06339645385742188,-0.3509258031845093
1760471333979074600,0.451074462890625,-0.01274702325463295,0.030919471755623817,-0.40131598711013794
1760471333989037600,0.46103759765625,-0.002008696785196662,0.021267514675855637,-0.44805121421813965
1760471333998999600,0.47099951171875,0.0007631212938576937,0.03223414719104767,-0.4869632124900818
1760471334008961500,0.48096142578125,-0.005375908687710762,0.038588810712099075,-0.5123199224472046
1760471334018923500,0.490923583984375,-0.005254735238850117,0.024805355817079544,-0.5323780179023743
1760471334028885500,0.500885498046875,-0.004925792571157217,0.0015668678097426891,-0.5334687232971191
1760471334038848500,0.5108486328125,0.0012183865765109658,0.010695118457078934,-0.5239633917808533
1760471334048810500,0.520810546875,0.001638043555431068,0.03944937512278557,-0.503484308719635
1760471334058772500,0.5307724609375,0.005600560922175646,0.0782465711236,-0.4811707139015198
1760471334068734500,0.540734375,-0.0010653334902599454,0.09574826806783676,-0.4682958424091339
1760471334078696400,0.550696533203125,-0.013394171372056007,0.12049169838428497,-0.46771952509880066
1760471334088659500,0.560659423828125,-0.022418610751628876,0.12492309510707855,-0.47060078382492065
1760471334098621700,0.57062158203125,-0.021227113902568817,0.10502474755048752,-0.48733049631118774
1760471334108583400,0.58058349609375,-0.016146909445524216,0.08642710745334625,-0.5260348320007324
1760471334118545400,0.59054541015625,-0.014387093484401703,0.09803982079029083,-0.5883885025978088
1760471334128507600,0.600507568359375,-0.013881050050258636,0.1006648913025856,-0.6537402868270874
1760471334138470400,0.610470458984375,-0.01943720318377018,0.07995001971721649,-0.7184149026870728
1760471334148432400,0.620432373046875,-0.032486218959093094,0.07135152071714401,-0.7984193563461304
1760471334158394600,0.63039453125,-0.04291941970586777,0.09958954900503159,-0.9065607786178589
1760471334168356400,0.6403564453125,-0.04013882577419281,0.15153761208057404,-1.0599017143249512
1760471334178318800,0.65031884765625,-0.05728345736861229,0.20480775833129883,-1.2248538732528687
1760471334188280800,0.66028076171875,-0.07063429057598114,0.23432239890098572,-1.3547431230545044
1760471334198243800,0.670243896484375,-0.09305837750434875,0.2746831476688385,-1.4117012023925781
1760471334208205800,0.680205810546875,-0.12243933230638504,0.30180618166923523,-1.4002835750579834
1760471334218167800,0.690167724609375,-0.12690971791744232,0.25373879075050354,-1.3173226118087769
1760471334228129800,0.7001298828125,-0.10532652586698532,0.15861882269382477,-1.192651629447937
1760471334238091800,0.710091796875,-0.07340188324451447,0.05284978449344635,-1.048601508140564
1760471334248054800,0.7200546875,-0.05691704526543617,-0.009513873606920242,-0.8958846926689148
1760471334258016800,0.730016845703125,-0.04734564572572708,0.00806618481874466,-0.7446243166923523
1760471334267978800,0.739978759765625,-0.03181038424372673,0.05356650426983833,-0.62308269739151
1760471334277940700,0.749940673828125,-0.019789140671491623,0.0830058827996254,-0.5277942419052124
1760471334287902700,0.75990283203125,-0.01745101809501648,0.07613545656204224,-0.4315660297870636
1760471334297866000,0.769865966796875,-0.023792270570993423,0.061160240322351456,-0.31835079193115234
1760471334307827700,0.77982763671875,-0.024678964167833328,0.04421371966600418,-0.18879766762256622
1760471334317789700,0.789789794921875,-0.017271382734179497,0.02073662169277668,-0.048062924295663834
1760471334327752000,0.799751953125,-0.010665692389011383,-0.017662517726421356,0.11303876340389252
1760471334337713700,0.809713623046875,-0.004981441888958216,-0.056279152631759644,0.3118767738342285
1760471334347676700,0.8196767578125,0.002249167300760746,-0.09827865660190582,0.5599926114082336
1760471334357639000,0.829638916015625,0.01662890613079071,-0.14246129989624023,0.8407998085021973
1760471334367600600,0.8396005859375,0.02093283273279667,-0.1406300663948059,1.176462173461914
1760471334377563000,0.84956298828125,0.03596744313836098,-0.15077830851078033,1.5405566692352295
1760471334387524900,0.85952490234375,0.09097954630851746,-0.22290125489234924,1.8703114986419678
1760471334397486600,0.869486572265625,0.1658678948879242,-0.30255773663520813,2.1231353282928467
1760471334407449600,0.87944970703125,0.13827592134475708,-0.3887268304824829,2.3210787773132324
1760471334417411800,0.889411865234375,0.10464552789926529,-0.4252435564994812,2.417877435684204
1760471334427373800,0.899373779296875,0.10566762834787369,-0.4433504343032837,2.402393341064453
1760471334437335800,0.909335693359375,0.1005849838256836,-0.5106794238090515,2.3255462646484375
1760471334447297800,0.9192978515625,0.08240353316068649,-0.5109186172485352,2.228661298751831
1760471334457260800,0.9292607421875,0.056766077876091,-0.4561743438243866,2.1404850482940674
1760471334467222800,0.939222900390625,0.023435119539499283,-0.3515714406967163,2.0838279724121094
1760471334477184800,0.949184814453125,-0.0019815564155578613,-0.2392699122428894,2.0345354080200195
1760471334487146800,0.959146728515625,-0.011312387883663177,-0.17879268527030945,1.9835575819015503
1760471334497108700,0.969108642578125,-0.02114025130867958,-0.14858683943748474,1.9225242137908936
1760471334507071700,0.97907177734375,-0.02756069041788578,-0.08890380710363388,1.816151738166809
1760471334517033700,0.98903369140625,-0.05683841556310654,0.0032815062440931797,1.6898902654647827
1760471334526995700,0.99899560546875,-0.0909883975982666,0.060254212468862534,1.5995761156082153
1760471334536957700,1.008957763671875,-0.076604925096035,0.034455638378858566,1.4815731048583984
1760471334546920000,1.018919921875,-0.027348095551133156,-0.061696264892816544,1.3011046648025513
1760471334556881700,1.028881591796875,0.02515665628015995,-0.11498478800058365,1.0792428255081177
1760471334566844700,1.0388447265625,0.05647658184170723,-0.13685837388038635,0.8185797929763794
1760471334576806700,1.048806640625,0.059699539095163345,-0.11299140006303787,0.5512407422065735
1760471334586769000,1.058768798828125,0.05085185542702675,-0.07257568836212158,0.3169786334037781
1760471334596730600,1.068730712890625,0.0363626629114151,-0.07057406008243561,0.1508605033159256
1760471334606692900,1.07869287109375,0.023382853716611862,-0.06243351474404335,0.037387508898973465
1760471334616656000,1.08865576171875,0.01090860553085804,-0.05517160892486572,-0.03460093215107918
1760471334626617600,1.09861767578125,-0.017289454117417336,-0.11137810349464417,-0.09230098873376846
1760471334636579800,1.108579833984375,-0.007459193933755159,-0.1525774747133255,-0.09777937084436417
1760471334646541800,1.118541748046875,0.020929617807269096,-0.15041273832321167,-0.06845346093177795
1760471334656503600,1.128503662109375,0.033981770277023315,-0.12448260933160782,-0.0282897986471653
1760471334666465800,1.1384658203125,0.025466004386544228,-0.0691734179854393,0.00774825643748045
1760471334676428800,1.1484287109375,0.010174399241805077,0.018821680918335915,0.0471891388297081
1760471334686390800,1.158390869140625,-0.0015147491358220577,0.07156112045049667,0.09068706631660461
1760471334696352800,1.168352783203125,-0.00056985963601619,0.02706023119390011,0.10336264967918396
1760471334706314800,1.178314697265625,0.027771763503551483,-0.012884552590548992,0.07467015832662582
1760471334716277000,1.188277099609375,0.05580446124076843,-0.04358147829771042,0.008814177475869656
1760471334726238700,1.19823876953125,0.09422222524881363,-0.033156875520944595,-0.09461064636707306
1760471334736201700,1.20820166015625,0.14538954198360443,-0.02349945344030857,-0.197572723031044
1760471334746164000,1.2181640625,0.21139907836914062,-0.06175875663757324,-0.27894875407218933
1760471334756125700,1.228125732421875,0.31484290957450867,-0.0390063039958477,-0.3400491178035736
1760471334766087700,1.238087646484375,0.3880050480365753,-0.011656004935503006,-0.44248974323272705
1760471334776050000,1.2480498046875,0.5688685774803162,-0.10110519081354141,-0.6122643947601318
1760471334786013000,1.258012939453125,0.5969368815422058,0.12872858345508575,-0.8587633371353149
1760471334795974700,1.267974609375,0.3149707317352295,0.4332602620124817,-1.0788366794586182
1760471334805937000,1.27793701171875,0.04111376032233238,0.6325818300247192,-1.1617070436477661
1760471334815898600,1.287898681640625,-0.1206655502319336,0.6200154423713684,-1.164161205291748
1760471334825860900,1.29786083984375,-0.10744661837816238,0.40798884630203247,-1.1068495512008667
1760471334835822800,1.30782275390625,0.0029126424342393875,0.10887590795755386,-1.0460418462753296
1760471334845785900,1.317785888671875,0.1087152361869812,-0.09396611899137497,-1.0014475584030151
1760471334855747600,1.32774755859375,0.07976295053958893,-0.3621427118778229,-0.9281088709831238
1760471334865709800,1.337709716796875,-0.08969946950674057,-0.6789555549621582,-0.7986931204795837
1760471334875671800,1.347671875,-0.17089632153511047,-0.7243145108222961,-0.678902268409729
1760471334885633800,1.3576337890625,-0.12750019133090973,-0.6664926409721375,-0.6027520895004272
1760471334895595800,1.367595703125,-0.05869368463754654,-0.6298336982727051,-0.5712453126907349
1760471334905558800,1.377558837890625,-0.030606035143136978,-0.505210280418396,-0.513173520565033
1760471334915520800,1.387520751953125,-0.005846893414855003,-0.03951341658830643,-0.4566870927810669
1760471334925482800,1.397482666015625,0.0033289834391325712,0.47202110290527344,-0.4656045138835907
1760471334935444700,1.40744482421875,0.021358318626880646,0.9475072026252747,-0.5557656288146973
1760471334945406700,1.41740673828125,0.1591784805059433,0.9991974830627441,-0.6091071963310242
1760471334955369700,1.42736962890625,0.47392550110816956,0.7064236402511597,-0.65386962890625
1760471334965331700,1.437331787109375,0.7984132766723633,0.2540810704231262,-0.6910210251808167
1760471334975294000,1.4472939453125,0.8885133862495422,-0.18542198836803436,-0.718631386756897
1760471334985255700,1.457255615234375,0.6844379305839539,-0.5463458299636841,-0.7891428470611572
1760471334995218000,1.467218017578125,0.39829301834106445,-0.7186547517776489,-0.8912228941917419
1760471335005180000,1.477179931640625,0.1978706568479538,-0.872630774974823,-1.015407919883728
1760471335015142700,1.487142578125,0.15856266021728516,-1.0772219896316528,-1.1623512506484985
1760471335025104600,1.497104736328125,0.2116832286119461,-1.2296490669250488,-1.333260178565979
1760471335035067000,1.50706689453125,0.2312404215335846,-0.4135711193084717,-1.563920259475708
1760471335045028600,1.517028564453125,-0.04713576287031174,0.2873882055282593,-1.54380202293396
1760471335054990800,1.526990966796875,-0.08100611716508865,0.6341238021850586,-1.1774253845214844
1760471335064952800,1.536952880859375,0.3638019561767578,0.9595212936401367,-0.6956877112388611
1760471335074915800,1.546915771484375,1.0792794227600098,1.4968135356903076,-0.3679220378398895
1760471335084877800,1.5568779296875,1.682983636856079,1.4707067012786865,-0.14535726606845856
1760471335094839800,1.56683984375,2.029346466064453,1.4213311672210693,0.04709073528647423
1760471335104801800,1.5768017578125,2.1114401817321777,1.4122090339660645,0.33432093262672424
1760471335114763800,1.586763671875,2.0061447620391846,1.1765925884246826,0.6785411238670349
1760471335124725800,1.596725830078125,1.8006477355957031,0.6207388043403625,0.989846408367157
1760471335134688800,1.606688720703125,1.5075314044952393,-0.19283293187618256,1.2152289152145386
1760471335144650800,1.616650634765625,1.0063719749450684,-0.9186034798622131,1.3823009729385376
1760471335154612700,1.62661279296875,0.30405300855636597,-1.5775699615478516,1.4899924993515015
1760471335164575000,1.636574951171875,-0.5113499164581299,-2.1793811321258545,1.549597978591919
1760471335174537200,1.646537109375,-1.315828800201416,-2.598205804824829,1.4980460405349731
1760471335184499000,1.6564990234375,-2.028992176055908,-2.9163978099823,1.3338383436203003
1760471335194462000,1.6664619140625,-2.5773022174835205,-3.0028300285339355,1.0065643787384033
1760471335204424200,1.676424072265625,-3.067519426345825,-2.5576884746551514,0.6680487394332886
1760471335214386000,1.686385986328125,-3.5202651023864746,-1.9443222284317017,0.5806291699409485
1760471335224348200,1.69634814453125,-3.8127920627593994,-1.6546452045440674,0.8138283491134644
1760471335234310100,1.70631005859375,-4.038322925567627,-1.8183627128601074,1.3500124216079712
1760471335244273200,1.716273193359375,-4.234951496124268,-2.5471415519714355,2.0892927646636963
1760471335254235100,1.726235107421875,-4.460965633392334,-3.6527578830718994,2.8923230171203613
1760471335264197000,1.736197021484375,-4.581543922424316,-4.754560947418213,3.633700370788574
1760471335274158800,1.746158935546875,-4.587070465087891,-5.3918352127075195,4.299368381500244
1760471335284121000,1.75612109375,-4.48494291305542,-5.592257499694824,4.757582664489746
1760471335294083000,1.7660830078125,-4.223043918609619,-5.598305702209473,4.9376068115234375
1760471335304046000,1.776046142578125,-3.890737533569336,-5.23543119430542,4.814067840576172
1760471335314008000,1.786008056640625,-3.630356550216675,-4.4474968910217285,4.334942817687988
1760471335323970000,1.795969970703125,-3.2374796867370605,-3.35366153717041,3.5416016578674316
1760471335333932300,1.805932373046875,-2.6835896968841553,-2.0961947441101074,2.605490207672119
1760471335343894000,1.81589404296875,-2.0773332118988037,-0.8966508507728577,1.6569843292236328
1760471335353856000,1.82585595703125,-1.476621150970459,0.014299130067229271,0.7773013114929199
1760471335363818200,1.835818359375,-0.8649295568466187,0.5876660943031311,-0.006316235288977623
1760471335373781000,1.845781005859375,-0.020610036328434944,0.8695382475852966,-0.7138494253158569
1760471335383743000,1.855742919921875,0.8800345063209534,1.2484792470932007,-1.0573842525482178
1760471335393705200,1.865705322265625,1.6982698440551758,1.2956984043121338,-1.0908477306365967
1760471335403667000,1.8756669921875,2.3058032989501953,1.253232479095459,-1.0751465559005737
1760471335413629000,1.88562890625,2.9176125526428223,1.0736312866210938,-1.2531622648239136
1760471335423591200,1.895591064453125,3.4325034618377686,0.8089770078659058,-1.5684943199157715
1760471335433554200,1.90555419921875,3.854632616043091,0.5733370780944824,-1.8753589391708374
1760471335443516000,1.915515869140625,4.124763488769531,0.24246753752231598,-2.0769200325012207
1760471335453478100,1.92547802734375,4.298799514770508,0.05850355327129364,-2.1828973293304443
1760471335463440100,1.935440185546875,4.514904022216797,-0.09574189782142639,-2.2792632579803467
1760471335473402000,1.945402099609375,4.90562629699707,-0.16137123107910156,-2.457308530807495
1760471335483364000,1.955364013671875,5.438467502593994,-0.036612339317798615,-2.617678165435791
1760471335493327000,1.9653271484375,6.046473503112793,0.2514551281929016,-2.7143912315368652
1760471335503289000,1.9752890625,6.553310871124268,0.5089128017425537,-2.7862980365753174
1760471335513251000,1.9852509765625,7.102612495422363,0.9372165203094482,-2.8377017974853516
1760471335523213000,1.995213134765625,7.541872978210449,1.2524086236953735,-2.857779026031494
1760471335533175000,2.005175048828125,7.833889961242676,1.3842018842697144,-2.930126667022705
1760471335543137000,2.015136962890625,7.962690353393555,1.768779993057251,-3.099862813949585
1760471335553100000,2.02510009765625,7.938697338104248,2.532454490661621,-3.325448989868164
1760471335563062000,2.03506201171875,7.774871349334717,3.2552430629730225,-3.540483236312866
1760471335573024000,2.04502392578125,7.332568168640137,3.824047565460205,-3.638427972793579
1760471335582986200,2.054986328125,6.637770175933838,3.935196876525879,-3.456956624984741
1760471335592948000,2.064947998046875,5.911581516265869,3.2738535404205322,-2.8930907249450684
1760471335602910000,2.074909912109375,5.2265167236328125,2.2298223972320557,-1.9838368892669678
1760471335612873000,2.084873046875,4.734308242797852,1.3975733518600464,-1.0129181146621704
1760471335622835200,2.094835205078125,4.416164398193359,1.0134236812591553,-0.15690496563911438
1760471335632797000,2.104796875,4.079683780670166,0.5538579225540161,0.39501386880874634
1760471335642759200,2.11475927734375,3.5954532623291016,0.24949119985103607,0.5826060771942139
1760471335652721200,2.12472119140625,2.9609310626983643,0.23915867507457733,0.47255200147628784
1760471335662683100,2.13468310546875,2.2929041385650635,0.3267330825328827,0.19299136102199554
1760471335672646100,2.144646240234375,1.6854381561279297,0.4385506808757782,-0.0799938440322876
1760471335682608000,2.154608154296875,1.0762908458709717,0.6575456261634827,-0.2302614003419876
1760471335692569900,2.16456982421875,0.509472131729126,0.8937408328056335,-0.21964897215366364
1760471335702532000,2.174531982421875,-0.12346289306879044,1.0395070314407349,-0.08469920605421066
1760471335712494000,2.184494140625,-0.8457865118980408,0.9349998831748962,0.14116747677326202
1760471335722456000,2.1944560546875,-1.5981179475784302,0.5830178260803223,0.43764305114746094
1760471335732419000,2.204419189453125,-2.281285047531128,-0.007019100710749626,0.7912504076957703
1760471335742381000,2.214381103515625,-2.9845712184906006,-0.6981073617935181,1.1289591789245605
1760471335752343300,2.22434326171875,-3.6410298347473145,-1.4470268487930298,1.3973541259765625
1760471335762305000,2.234304931640625,-4.217849254608154,-2.13895845413208,1.561654806137085
1760471335772267000,2.24426708984375,-4.7595109939575195,-2.5941734313964844,1.6575943231582642
1760471335782229200,2.254229248046875,-5.323117256164551,-2.972155809402466,1.7049577236175537
1760471335792191000,2.26419091796875,-5.883537769317627,-3.2034964561462402,1.7479557991027832
1760471335802154000,2.274154052734375,-6.5143280029296875,-3.2415771484375,1.8436685800552368
1760471335812116200,2.2841162109375,-7.194581985473633,-3.268108606338501,2.037261724472046
1760471335822078000,2.294077880859375,-7.730281352996826,-3.4017574787139893,2.333873748779297
1760471335832040200,2.304040283203125,-7.978719234466553,-3.791013479232788,2.640784502029419
1760471335842002200,2.314002197265625,-8.076781272888184,-3.9859817028045654,2.882640838623047
1760471335851964000,2.3239638671875,-8.261068344116211,-3.865135669708252,3.0622270107269287
1760471335861927000,2.333927001953125,-8.576445579528809,-3.6138484477996826,3.1857690811157227
1760471335871889200,2.34388916015625,-8.774211883544922,-3.341856002807617,3.2655794620513916
1760471335881851000,2.353850830078125,-8.60886287689209,-3.0468173027038574,3.2839574813842773
1760471335891813000,2.363813232421875,-8.232091903686523,-2.739624261856079,3.1773600578308105
1760471335901775000,2.373775146484375,-7.8467559814453125,-2.5795700550079346,2.8090391159057617
1760471335911737000,2.383737060546875,-7.5422139167785645,-2.5478456020355225,2.2210655212402344
1760471335921700000,2.3937001953125,-7.2529730796813965,-2.536850929260254,1.589735746383667
1760471335931662000,2.403662109375,-6.95121431350708,-2.3565752506256104,1.0688422918319702
1760471335941624000,2.4136240234375,-6.554218769073486,-2.005714178085327,0.693841278553009
1760471335951586000,2.4235859375,-6.109742641448975,-1.6994855403900146,0.4289896786212921
1760471335961548000,2.433548095703125,-5.5334248542785645,-1.4884182214736938,0.23093710839748383
1760471335971510300,2.44351025390625,-4.829620838165283,-1.3317830562591553,0.08817197382450104
1760471335981473000,2.45347314453125,-4.009461879730225,-1.223464012145996,-0.022966764867305756
1760471335991435000,2.46343505859375,-3.169658899307251,-1.1096879243850708,-0.10803478956222534
1760471336001397200,2.473397216796875,-2.3604471683502197,-0.955784797668457,-0.149961918592453
1760471336011359000,2.48335888671875,-1.5249519348144531,-0.7350521683692932,-0.14951424300670624
1760471336021321000,2.493321044921875,-0.7270317673683167,-0.4405093789100647,-0.14240765571594238
1760471336031283200,2.503283203125,-0.009010029025375843,-0.09099636971950531,-0.16691459715366364
1760471336041245000,2.513244873046875,0.6483711004257202,0.2913837134838104,-0.23841492831707
1760471336051208000,2.5232080078125,1.2662843465805054,0.6129487156867981,-0.35269758105278015
1760471336061170200,2.533170166015625,1.839133381843567,0.8447203636169434,-0.5038473606109619
1760471336071132200,2.543132080078125,2.371781349182129,0.9951854348182678,-0.6651579737663269
1760471336081094100,2.55309423828125,2.8735077381134033,1.1469062566757202,-0.8068777322769165
1760471336091056000,2.56305615234375,3.3676271438598633,1.2976642847061157,-0.9245764017105103
1760471336101017900,2.573017822265625,3.866095781326294,1.4611514806747437,-1.0473278760910034
1760471336110980900,2.58298095703125,4.3543291091918945,1.6298952102661133,-1.2088842391967773
1760471336120943000,2.592943115234375,4.838542461395264,1.7922930717468262,-1.4095168113708496
1760471336130905000,2.602905029296875,5.315134525299072,1.9821453094482422,-1.6003179550170898
1760471336140867000,2.6128671875,5.834173202514648,2.129589080810547,-1.7764025926589966
1760471336150829000,2.6228291015625,6.315892219543457,2.1631662845611572,-1.9606014490127563
1760471336160791000,2.632791015625,6.642660140991211,2.105544328689575,-2.1526541709899902
1760471336170754000,2.642754150390625,6.6956377029418945,2.149759292602539,-2.331181049346924
1760471336180715800,2.6527158203125,6.501951694488525,2.4734549522399902,-2.5258491039276123
1760471336190677800,2.662677734375,6.010613918304443,2.9892773628234863,-2.7892987728118896
1760471336200640000,2.672639892578125,5.354981899261475,3.553575038909912,-3.0603935718536377
1760471336210601700,2.682601806640625,4.63807487487793,3.916092872619629,-3.252471685409546
1760471336220564000,2.69256396484375,3.941507577896118,3.8270041942596436,-3.2408156394958496
1760471336230526000,2.70252587890625,3.249333620071411,3.3867170810699463,-2.954493999481201
1760471336240489000,2.712489013671875,2.7087161540985107,2.6330060958862305,-2.4132840633392334
1760471336250451000,2.722450927734375,2.397282361984253,1.7457157373428345,-1.7423877716064453
1760471336260413000,2.732412841796875,2.230318784713745,1.033413052558899,-1.0797185897827148
1760471336270375000,2.742375,2.093853712081909,0.557227611541748,-0.5533440113067627
1760471336280337000,2.7523369140625,1.8441764116287231,0.30472391843795776,-0.19903740286827087
1760471336290299000,2.762298828125,1.4362778663635254,0.27046021819114685,0.006238783244043589
1760471336300262000,2.772261962890625,0.9293349981307983,0.4156704545021057,0.09878858923912048
1760471336310224000,2.782223876953125,0.438793808221817,0.5910556316375732,0.11033818125724792
1760471336320185900,2.792185791015625,0.03591182455420494,0.7516317367553711,0.10128533840179443
1760471336330148000,2.802148193359375,-0.2463424950838089,0.8856523633003235,0.13599377870559692
1760471336340109800,2.81210986328125,-0.4125989079475403,0.9060378670692444,0.25374510884284973
1760471336350071800,2.82207177734375,-0.4662725329399109,0.7473132014274597,0.44421863555908203
1760471336360034800,2.832034912109375,-0.44420966506004333,0.4755277931690216,0.6546667218208313
1760471336369996800,2.841996826171875,-0.3964245617389679,0.17643509805202484,0.8220647573471069
1760471336379958800,2.851958740234375,-0.3527160584926605,-0.08002173155546188,0.9156043529510498
1760471336389921000,2.861921142578125,-0.34397637844085693,-0.18730105459690094,0.9053279757499695
1760471336399882800,2.8718828125,-0.3721972107887268,-0.14812254905700684,0.7740384936332703
1760471336409845000,2.881844970703125,-0.41321176290512085,-0.025418736040592194,0.5553748607635498
1760471336419807000,2.891806884765625,-0.4516545534133911,0.14918099343776703,0.3102821707725525
1760471336429770000,2.90177001953125,-0.4974300265312195,0.3145236074924469,0.08297473937273026
1760471336439731700,2.911731689453125,-0.524966299533844,0.4298431873321533,-0.08670912683010101
1760471336449694000,2.92169384765625,-0.512186586856842,0.4704824686050415,-0.16780638694763184
1760471336459656000,2.931656005859375,-0.45395633578300476,0.40777814388275146,-0.1605183482170105
1760471336469618000,2.941617919921875,-0.35260868072509766,0.28648871183395386,-0.08138330280780792
1760471336479580000,2.951579833984375,-0.2387327402830124,0.15388652682304382,0.02860870212316513
1760471336489543000,2.96154296875,-0.1081094816327095,0.04707406461238861,0.13155266642570496
1760471336499505000,2.9715048828125,0.03127774968743324,-0.03325805068016052,0.20125851035118103
1760471336509467000,2.981466796875,0.15335890650749207,-0.11068200320005417,0.212657630443573
1760471336519428900,2.991428955078125,0.21903491020202637,-0.13669775426387787,0.15159358084201813
1760471336529390800,3.001390869140625,0.20571085810661316,-0.1324412226676941,0.016733774915337563
1760471336539352800,3.011352783203125,0.14564591646194458,-0.08905518800020218,-0.14418691396713257
1760471336549315000,3.021315185546875,0.07390382140874863,-0.023310797289013863,-0.27237632870674133
1760471336559278000,3.031278076171875,0.03284332901239395,0.02992468886077404,-0.3319800794124603
1760471336569239800,3.04123974609375,0.03060147911310196,0.0546012744307518,-0.32204434275627136
1760471336579202000,3.0512021484375,0.06846386194229126,0.011747146025300026,-0.2675338089466095
1760471336589164000,3.0611640625,0.1390610635280609,-0.07082842290401459,-0.2014424204826355
1760471336599125800,3.071125732421875,0.22708788514137268,-0.15698224306106567,-0.1543583869934082
1760471336609088000,3.081087890625,0.30401915311813354,-0.21193604171276093,-0.14458778500556946
1760471336619051000,3.091051025390625,0.34208834171295166,-0.25616350769996643,-0.1699368953704834
1760471336629012700,3.1010126953125,0.3479084372520447,-0.29444751143455505,-0.1997661590576172
1760471336638975000,3.11097509765625,0.30542758107185364,-0.31275665760040283,-0.22802723944187164
1760471336648937000,3.12093701171875,0.21655870974063873,-0.3103313148021698,-0.26606622338294983
1760471336658899000,3.13089892578125,0.09315674751996994,-0.3002515733242035,-0.2904027998447418
1760471336668861000,3.14086083984375,-0.05672648921608925,-0.28321588039398193,-0.27386748790740967
1760471336678823000,3.150822998046875,-0.2025827318429947,-0.2628527283668518,-0.19661734998226166
1760471336688785700,3.16078564453125,-0.30834296345710754,-0.26386603713035583,-0.06695229560136795
1760471336698748000,3.170747802734375,-0.34183427691459656,-0.2889573872089386,0.09097898006439209
1760471336708710000,3.1807099609375,-0.3341931104660034,-0.34833523631095886,0.2354288548231125
1760471336718672000,3.190671875,-0.32356491684913635,-0.410610556602478,0.3221261501312256
1760471336728633900,3.2006337890625,-0.3120741844177246,-0.44266438484191895,0.3508520722389221
1760471336738595800,3.210595947265625,-0.3158038556575775,-0.4386935830116272,0.3239550292491913
1760471336748557800,3.220557861328125,-0.340617835521698,-0.38580241799354553,0.2490978091955185
1760471336758520800,3.230520751953125,-0.3707617223262787,-0.2390385866165161,0.14247874915599823
1760471336768482800,3.24048291015625,-0.39096367359161377,-0.09974726289510727,0.022945700213313103
1760471336778445000,3.250445068359375,-0.4046681523323059,0.004574039485305548,-0.0619993656873703
1760471336788406800,3.26040673828125,-0.4216921627521515,0.05570539832115173,-0.10303601622581482
1760471336798369000,3.270369140625,-0.4441891312599182,0.06293695420026779,-0.09268537908792496
1760471336808331000,3.2803310546875,-0.45288702845573425,0.06192228943109512,-0.04387229308485985
1760471336818293800,3.290293701171875,-0.44141703844070435,0.01690634898841381,0.02633577585220337
1760471336828256000,3.300256103515625,-0.4108114540576935,-0.032173845916986465,0.09177017211914062
1760471336838218000,3.310218017578125,-0.3629077970981598,-0.07224901020526886,0.1331707388162613
1760471336848179700,3.3201796875,-0.31262704730033875,-0.15104688704013824,0.15613330900669098
1760471336858142000,3.330141845703125,-0.27965429425239563,-0.21268410980701447,0.16787314414978027
1760471336868104000,3.34010400390625,-0.28708958625793457,-0.2327779233455658,0.15540474653244019
1760471336878066000,3.35006591796875,-0.30348047614097595,-0.23441125452518463,0.12321068346500397
1760471336888029000,3.36002880859375,-0.3027832508087158,-0.19526837766170502,0.08223608136177063
1760471336897991000,3.369990966796875,-0.30120083689689636,-0.1412995457649231,0.029376350343227386
1760471336907953000,3.379952880859375,-0.31114187836647034,-0.0799000933766365,-0.028150057420134544
1760471336917915000,3.389914794921875,-0.3393125832080841,-0.07094445079565048,-0.0713687613606453
1760471336927876900,3.399876953125,-0.4007623493671417,-0.0876254215836525,-0.06916473060846329
1760471336937838800,3.4098388671875,-0.4800349473953247,-0.11531978100538254,-0.0064180586487054825
1760471336947800800,3.41980078125,-0.547630250453949,-0.16337040066719055,0.11092054843902588
1760471336957763800,3.429763916015625,-0.582966148853302,-0.21330666542053223,0.2497752606868744
1760471336967726000,3.43972607421875,-0.6003624796867371,-0.2861529290676117,0.36808380484580994
1760471336977687800,3.449687744140625,-0.6141172051429749,-0.3865123987197876,0.43761083483695984
1760471336987649800,3.45964990234375,-0.6484403014183044,-0.4678645133972168,0.43934428691864014
1760471336997612000,3.469612060546875,-0.7207918167114258,-0.4563952684402466,0.366076797246933
1760471337007573800,3.47957373046875,-0.8122828602790833,-0.39076778292655945,0.25709837675094604
1760471337017536000,3.489535888671875,-0.890704333782196,-0.3373787999153137,0.1562524139881134
1760471337027499000,3.4994990234375,-0.9405941367149353,-0.28945761919021606,0.09603621065616608
1760471337037460700,3.509460693359375,-0.9719136357307434,-0.25106263160705566,0.07917103916406631
1760471337047423000,3.519423095703125,-0.9950482845306396,-0.2581476867198944,0.10345454514026642
1760471337057385000,3.529385009765625,-1.0380464792251587,-0.2717345356941223,0.17911884188652039
1760471337067346700,3.5393466796875,-1.1079131364822388,-0.32872167229652405,0.30254942178726196
1760471337077309000,3.549308837890625,-1.1732146739959717,-0.4390822947025299,0.45890459418296814
1760471337087272000,3.55927197265625,-1.2176976203918457,-0.5831257104873657,0.6200945377349854
1760471337097234000,3.56923388671875,-1.2332645654678345,-0.7246345281600952,0.7500386238098145
1760471337107196000,3.57919580078125,-1.2421607971191406,-0.8140762448310852,0.8347737789154053
1760471337117158000,3.589157958984375,-1.2824242115020752,-0.7543391585350037,0.8547901511192322
1760471337127120100,3.5991201171875,-1.344220757484436,-0.6187261939048767,0.7976400256156921
1760471337137081900,3.609081787109375,-1.3718981742858887,-0.50519859790802,0.6695369482040405
1760471337147043800,3.6190439453125,-1.3429054021835327,-0.4010266065597534,0.5030390620231628
1760471337157007000,3.629007080078125,-1.2822582721710205,-0.29460689425468445,0.3486606776714325
1760471337166968800,3.63896875,-1.1755512952804565,-0.188172847032547,0.24157606065273285
1760471337176935000,3.648934814453125,-1.0372995138168335,-0.09773453325033188,0.18991059064865112
1760471337186897000,3.65889697265625,-0.9032530784606934,-0.08239419758319855,0.17334307730197906
1760471337196859000,3.66885888671875,-0.7916591167449951,-0.13266369700431824,0.17087937891483307
1760471337206820900,3.67882080078125,-0.7202743887901306,-0.18928517401218414,0.176731139421463
1760471337216782800,3.688782958984375,-0.6832979917526245,-0.2581935524940491,0.1917022168636322
1760471337226745900,3.698745849609375,-0.6536684632301331,-0.29668503999710083,0.22662745416164398
1760471337236707800,3.708707763671875,-0.619968831539154,-0.3189607262611389,0.27489688992500305
1760471337246670000,3.718670166015625,-0.5673791170120239,-0.34378084540367126,0.31432339549064636
1760471337256631800,3.7286318359375,-0.5192162394523621,-0.28463834524154663,0.3233179748058319
1760471337266594000,3.738593994140625,-0.4853368401527405,-0.15228135883808136,0.27860376238822937
1760471337276556000,3.74855615234375,-0.43559879064559937,-0.04998738691210747,0.19669115543365479
1760471337286517800,3.758517822265625,-0.37117800116539,0.03491126000881195,0.1187545508146286
1760471337296480800,3.768480712890625,-0.3093694746494293,0.10077022761106491,0.07558310776948929
1760471337306443000,3.778443115234375,-0.24483415484428406,0.10282804816961288,0.06676457822322845
1760471337316404700,3.78840478515625,-0.16747157275676727,0.0324912890791893,0.0781128853559494
1760471337326367000,3.798366943359375,-0.08286374062299728,-0.06755515187978745,0.0977473109960556
1760471337336329000,3.808328857421875,-0.015033720061182976,-0.12064620852470398,0.11563489586114883
1760471337346291000,3.818291015625,0.045869577676057816,-0.12720851600170135,0.12400387972593307
1760471337356253000,3.8282529296875,0.07931330054998398,-0.0969543531537056,0.11490996927022934
1760471337366216000,3.8382158203125,0.08776670694351196,-0.052657999098300934,0.08768393844366074
1760471337376177700,3.848177734375,0.09073585271835327,-0.0007408470846712589,0.052765119820833206
1760471337386140000,3.858139892578125,0.1046506017446518,0.04055945575237274,0.024368101730942726
1760471337396102000,3.868101806640625,0.13295461237430573,0.06448600441217422,0.00917229987680912
1760471337406063900,3.87806396484375,0.1515328288078308,0.09214932471513748,0.0022416890133172274
1760471337416025900,3.88802587890625,0.15879292786121368,0.10513647645711899,-0.010616494342684746
1760471337425987800,3.89798779296875,0.15553802251815796,0.08505863696336746,-0.023087278008461
1760471337435951000,3.907951171875,0.14862369000911713,0.04080050066113472,-0.021927360445261
1760471337445912800,3.917912841796875,0.15023544430732727,-0.0014095385558903217,-0.0016958594787865877
1760471337455874800,3.927874755859375,0.1591934710741043,-0.03330289572477341,0.032460134476423264
1760471337465837000,3.937837158203125,0.16815340518951416,-0.032513268291950226,0.057685062289237976
1760471337475798800,3.947798828125,0.17319439351558685,-0.012785432860255241,0.05575379729270935
1760471337485761000,3.957760986328125,0.16930031776428223,0.02002444490790367,0.021646691486239433
1760471337495723000,3.967722900390625,0.17379270493984222,0.05625306814908981,-0.04676615074276924
1760471337505685800,3.977685791015625,0.18122905492782593,0.10174119472503662,-0.11692926287651062
1760471337515648000,3.98764794921875,0.18469136953353882,0.13664193451404572,-0.17357663810253143
1760471337525610000,3.99760986328125,0.19545374810695648,0.13932640850543976,-0.2037380039691925
1760471337535571700,4.00757177734375,0.21711237728595734,0.11872915178537369,-0.19896118342876434
1760471337545534000,4.017533935546875,0.23414674401283264,0.08919336646795273,-0.1748041808605194
1760471337555496000,4.027495849609375,0.24794521927833557,0.042554937303066254,-0.14559069275856018
1760471337565458000,4.0374580078125,0.26912054419517517,0.009664363227784634,-0.12005045264959335
1760471337575421000,4.0474208984375,0.29686781764030457,0.004116381984204054,-0.09679638594388962
1760471337585383000,4.0573828125,0.3373427987098694,0.000013782642781734467,-0.10240766406059265
1760471337595345000,4.067344970703125,0.3898029029369354,0.0021160258911550045,-0.13901227712631226
1760471337605307000,4.077306884765625,0.43582552671432495,0.009706301614642143,-0.18857236206531525
1760471337615268900,4.087268798828125,0.46195653080940247,0.03407145291566849,-0.2349824607372284
1760471337625230800,4.09723095703125,0.479592502117157,0.07082760334014893,-0.27903488278388977
1760471337635192800,4.10719287109375,0.498506635427475,0.10593276470899582,-0.3119175136089325
1760471337645155800,4.11715576171875,0.5133929252624512,0.11184072494506836,-0.329095721244812
1760471337655118000,4.1271181640625,0.5206434726715088,0.0870080292224884,-0.3168572187423706
1760471337665079800,4.137079833984375,0.5270236134529114,0.05571749061346054,-0.28529074788093567
1760471337675041800,4.147041748046875,0.5300194025039673,0.015674062073230743,-0.2500079572200775
1760471337685004000,4.157004150390625,0.5303727984428406,-0.01112532801926136,-0.2329307198524475
1760471337694965800,4.1669658203125,0.5444356203079224,-0.018317323178052902,-0.24310840666294098
1760471337704928000,4.176927978515625,0.5592707395553589,-0.030540168285369873,-0.2670643627643585
1760471337714891000,4.18689111328125,0.5693827271461487,-0.022243604063987732,-0.29554614424705505
1760471337724852700,4.196852783203125,0.5698011517524719,0.000146389938890934,-0.3174583613872528
1760471337734815000,4.20681494140625,0.5742076635360718,0.019918745383620262,-0.3278299570083618
1760471337744777000,4.21677685546875,0.5858725309371948,0.026066653430461884,-0.3271061182022095
1760471337754738700,4.22673876953125,0.6027601361274719,0.022859709337353706,-0.3212233781814575
1760471337764701000,4.236700927734375,0.6157011985778809,0.009446166455745697,-0.3152019679546356
1760471337774663000,4.246662841796875,0.6361836791038513,-0.005818649660795927,-0.3129885792732239
1760471337784626000,4.2566259765625,0.6610245704650879,-0.024662911891937256,-0.32375067472457886
1760471337794588000,4.266587890625,0.6674790382385254,-0.007029157597571611,-0.3375818431377411
1760471337804550000,4.2765498046875,0.6484051942825317,0.03200878947973251,-0.3584114909172058
1760471337814512000,4.28651220703125,0.6332111358642578,0.08012451976537704,-0.38096749782562256
1760471337824473900,4.296473876953125,0.6255878806114197,0.14065150916576385,-0.40772509574890137
1760471337834435800,4.306435791015625,0.634629487991333,0.1913595050573349,-0.43572044372558594
1760471337844397800,4.316397705078125,0.6592525243759155,0.21240940690040588,-0.4697825312614441
1760471337854360800,4.32636083984375,0.6888832449913025,0.19537748396396637,-0.5056998133659363
1760471337864322800,4.33632275390625,0.724194347858429,0.16150394082069397,-0.5300663709640503
1760471337874285000,4.34628515625,0.759983241558075,0.12629824876785278,-0.5428912043571472
1760471337884246800,4.356246826171875,0.7714036703109741,0.10225576162338257,-0.5473863482475281
1760471337894209000,4.366208984375,0.7937915325164795,0.10871472209692001,-0.5550999045372009
1760471337904171000,4.3761708984375,0.8521248698234558,0.15708066523075104,-0.579291045665741
1760471337914132700,4.3861328125,0.9166528582572937,0.20887310802936554,-0.6189646124839783
1760471337924095700,4.396095703125,0.9776185154914856,0.23784057796001434,-0.6690515279769897
1760471337934058000,4.40605810546875,1.0289504528045654,0.22830305993556976,-0.7230984568595886
1760471337944019700,4.416019775390625,1.0565725564956665,0.21938680112361908,-0.7790203094482422
1760471337953982000,4.42598193359375,1.0532217025756836,0.28318724036216736,-0.833125114440918
1760471337963944000,4.43594384765625,1.0188019275665283,0.36804115772247314,-0.8792300224304199
1760471337973906000,4.445906005859375,0.9886457920074463,0.4211311638355255,-0.9036255478858948
1760471337983868000,4.455867919921875,1.0051603317260742,0.43500572443008423,-0.906230628490448
1760471337993830000,4.465829833984375,1.08125638961792,0.4152042269706726,-0.8843256235122681
1760471338003793000,4.47579296875,1.201988935470581,0.3877246677875519,-0.8505716919898987
1760471338013755000,4.4857548828125,1.343510627746582,0.34381669759750366,-0.8107319474220276
1760471338023716900,4.495716796875,1.4821268320083618,0.3024929463863373,-0.7721384763717651
1760471338033679000,4.50567919921875,1.5840702056884766,0.27068614959716797,-0.7343672513961792
1760471338043640800,4.515640869140625,1.6079750061035156,0.3123249113559723,-0.7094408869743347
1760471338053602800,4.525602783203125,1.5309584140777588,0.38745105266571045,-0.6912339925765991
1760471338063565000,4.53556494140625,1.384822964668274,0.47200775146484375,-0.6861028671264648
1760471338073527800,4.54552783203125,1.19618558883667,0.6022819876670837,-0.679932713508606
1760471338083489800,4.55548974609375,0.9884940981864929,0.6907497644424438,-0.6500940918922424
1760471338093452000,4.5654521484375,0.7777541875839233,0.6256656050682068,-0.6003683805465698
1760471338103413800,4.575413818359375,0.591651439666748,0.4301980435848236,-0.5076459050178528
1760471338113376000,4.5853759765625,0.4411988854408264,0.14938890933990479,-0.37535375356674194
1760471338123338000,4.595337890625,0.31312400102615356,-0.12982968986034393,-0.20952005684375763
1760471338133299700,4.6052998046875,0.20775318145751953,-0.32920733094215393,-0.022760935127735138
1760471338143263000,4.615262939453125,0.10586036741733551,-0.4354621171951294,0.1551869660615921
1760471338153225000,4.625224853515625,-0.0011661183089017868,-0.4136538505554199,0.2909921109676361
1760471338163186700,4.635186767578125,-0.10199552774429321,-0.31795740127563477,0.37635254859924316
1760471338173149000,4.64514892578125,-0.19137556850910187,-0.22141653299331665,0.41626331210136414
1760471338183107000,4.655107177734375,-0.27859219908714294,-0.1570548564195633,0.41403451561927795
1760471338193069300,4.6650693359375,-0.35689955949783325,-0.13168126344680786,0.3799702823162079
1760471338203031000,4.675031005859375,-0.42958495020866394,-0.13724273443222046,0.32661306858062744
1760471338212993000,4.684992919921875,-0.4888753890991211,-0.17430555820465088,0.2697453498840332
1760471338222956300,4.694956298828125,-0.5317093729972839,-0.24207741022109985,0.226704403758049
1760471338232918300,4.704918212890625,-0.559773862361908,-0.29342135787010193,0.2078925222158432
1760471338242880000,4.7148798828125,-0.589438796043396,-0.31632959842681885,0.20766161382198334
1760471338252842200,4.72484228515625,-0.6150007247924805,-0.30381500720977783,0.22009943425655365
1760471338262804200,4.73480419921875,-0.6278172135353088,-0.2579050362110138,0.2396683543920517
1760471338272766200,4.74476611328125,-0.6300829648971558,-0.21400140225887299,0.26487284898757935
1760471338282728200,4.754728271484375,-0.6350849270820618,-0.16838732361793518,0.29908594489097595
1760471338292690000,4.76468994140625,-0.6512801647186279,-0.1383911520242691,0.3370116949081421
1760471338302653200,4.774653076171875,-0.6657882928848267,-0.1604708880186081,0.3743036687374115
1760471338312615200,4.784615234375,-0.6817163228988647,-0.18332713842391968,0.4092591106891632
1760471338322577200,4.7945771484375,-0.7075026035308838,-0.20029519498348236,0.4347647428512573
1760471338332539100,4.8045390625,-0.7368586659431458,-0.22966989874839783,0.4565749168395996
1760471338342501000,4.814501220703125,-0.771435022354126,-0.2452738881111145,0.47432196140289307
1760471338352463400,4.82446337890625,-0.8253049850463867,-0.24946226179599762,0.48546305298805237
1760471338362425000,4.834425048828125,-0.9118180274963379,-0.2089073807001114,0.49959513545036316
1760471338372388000,4.84438818359375,-1.0463895797729492,-0.14162230491638184,0.5449216961860657
1760471338382350000,4.85435009765625,-1.224478840827942,-0.0582917295396328,0.6115923523902893
1760471338392312000,4.86431201171875,-1.4235472679138184,0.025793109089136124,0.6944600343704224
1760471338402274000,4.874274169921875,-1.6122725009918213,-0.07202852517366409,0.7782542705535889
1760471338412236300,4.884236328125,-1.781164526939392,-0.29940611124038696,0.8493645787239075
1760471338422198000,4.894197998046875,-1.9435923099517822,-0.4851123094558716,0.9308689832687378
1760471338432160300,4.90416015625,-2.1169307231903076,-0.7099043726921082,1.0586377382278442
1760471338442122200,4.914122314453125,-2.336151123046875,-0.9724108576774597,1.2301005125045776
1760471338452085200,4.924085205078125,-2.6236391067504883,-1.0786789655685425,1.4415353536605835
1760471338462047000,4.934046875,-2.9777040481567383,-1.0863935947418213,1.668370008468628
1760471338472009200,4.94400927734375,-3.407905340194702,-1.058670163154602,1.869876503944397
1760471338481971200,4.95397119140625,-3.8549842834472656,-1.000822901725769,1.996651530265808
1760471338491933200,4.96393310546875,-4.138861656188965,-1.1010364294052124,2.0473833084106445
1760471338501895200,4.973895263671875,-4.4069108963012695,-1.2207891941070557,2.0138440132141113
1760471338511857200,4.983857177734375,-4.559011459350586,-1.3828881978988647,1.93418288230896
1760471338521819100,4.993819091796875,-4.53945255279541,-1.6348350048065186,1.8342610597610474
1760471338531782100,5.0037822265625,-4.357640266418457,-1.9055767059326172,1.7653303146362305
1760471338541744000,5.013744140625,-4.106664657592773,-1.9735420942306519,1.7224401235580444
1760471338551706000,5.0237060546875,-3.8046953678131104,-1.837792992591858,1.707032322883606
1760471338561668000,5.033668212890625,-3.4481332302093506,-1.6317644119262695,1.6744405031204224
1760471338571630300,5.04363037109375,-3.0452799797058105,-1.3946504592895508,1.5832762718200684
1760471338581592000,5.053592041015625,-2.521481990814209,-1.0786120891571045,1.4352511167526245
1760471338591554000,5.063553955078125,-1.9863250255584717,-0.6996334195137024,1.2272487878799438
1760471338601516300,5.073516357421875,-1.5533660650253296,-0.31878912448883057,0.9554308652877808
1760471338611479000,5.08347900390625,-1.1942180395126343,0.00868864357471466,0.6357647776603699
1760471338621441000,5.09344091796875,-0.8694314360618591,0.22920158505439758,0.3126460611820221
1760471338631403300,5.1034033203125,-0.5858106017112732,0.35362812876701355,0.021470505744218826
1760471338641365000,5.113364990234375,-0.2806163430213928,0.42033496499061584,-0.21188312768936157
1760471338651327200,5.1233271484375,0.04569999501109123,0.4517327845096588,-0.34605422616004944
1760471338661289200,5.133289306640625,0.366668164730072,0.44032353162765503,-0.3747764229774475
1760471338671251000,5.1432509765625,0.6665220260620117,0.399768590927124,-0.333161860704422
1760471338681213200,5.153213134765625,0.9418534636497498,0.3653360605239868,-0.2423720359802246
1760471338691176200,5.16317626953125,1.153053641319275,0.3974306583404541,-0.1687719076871872
1760471338701138200,5.17313818359375,1.3038867712020874,0.4910764694213867,-0.145381897687912
1760471338711100200,5.18310009765625,1.4493666887283325,0.5370710492134094,-0.17086084187030792
1760471338721062100,5.193062255859375,1.5963995456695557,0.4986054301261902,-0.22062227129936218
1760471338731024400,5.2030244140625,1.703967571258545,0.46345117688179016,-0.29031720757484436
1760471338740986000,5.212986083984375,1.761284589767456,0.479049950838089,-0.3775985836982727
1760471338750948000,5.222947998046875,1.7607909440994263,0.5268652439117432,-0.47514405846595764
1760471338760911000,5.2329111328125,1.8074705600738525,0.6376433968544006,-0.5700732469558716
1760471338770873000,5.242873046875,1.7465368509292603,0.7999820113182068,-0.6472964286804199
1760471338780835000,5.2528349609375,1.6292755603790283,0.837555468082428,-0.70346999168396
1760471338790797300,5.26279736328125,1.5250754356384277,0.7690248489379883,-0.7402846813201904
1760471338800759000,5.272759033203125,1.4270113706588745,0.6307633519172668,-0.7473694682121277
1760471338810721300,5.28272119140625,1.3283439874649048,0.49364906549453735,-0.7296201586723328
1760471338820683300,5.292683349609375,1.270184874534607,0.4177961051464081,-0.6885169148445129
1760471338830645000,5.30264501953125,1.2594252824783325,0.43269896507263184,-0.6162508130073547
1760471338840608000,5.31260791015625,1.2842320203781128,0.48435816168785095,-0.5331077575683594
1760471338850570200,5.3225703125,1.3386821746826172,0.5259525775909424,-0.47786787152290344
1760471338860532000,5.332531982421875,1.3884981870651245,0.5206374526023865,-0.4716794788837433
1760471338870494200,5.342494140625,1.426606297492981,0.5043947100639343,-0.5200103521347046
1760471338880456200,5.352456298828125,1.4493712186813354,0.5390951633453369,-0.6131892800331116
1760471338890418200,5.362418212890625,1.4483829736709595,0.6062120795249939,-0.7313549518585205
1760471338900380200,5.372380126953125,1.4299434423446655,0.6989552974700928,-0.8509615063667297
1760471338910342100,5.382342041015625,1.4270561933517456,0.8109003901481628,-0.9609022736549377
1760471338920305200,5.39230517578125,1.4784318208694458,0.890100359916687,-1.059668779373169
1760471338930267100,5.40226708984375,1.5917824506759644,0.98294997215271,-1.1428446769714355
1760471338940229000,5.41222900390625,1.7271946668624878,1.075515627861023,-1.2211977243423462
1760471338950191400,5.42219140625,1.8783292770385742,1.122390627861023,-1.3076196908950806
1760471338960153000,5.432153076171875,2.0076510906219482,1.188662052154541,-1.3956462144851685
1760471338970115000,5.442114990234375,2.0952649116516113,1.2474220991134644,-1.4789491891860962
1760471338980077300,5.452077392578125,2.1717302799224854,1.2732089757919312,-1.5598180294036865
1760471338990039000,5.4620390625,2.234255075454712,1.2809754610061646,-1.621333360671997
1760471339000002000,5.472001953125,2.2975668907165527,1.2462300062179565,-1.6552077531814575
1760471339009964300,5.48196435546875,2.3945109844207764,1.135428786277771,-1.656675934791565
1760471339019926000,5.491926025390625,2.5622363090515137,0.9642540812492371,-1.6332927942276
1760471339029888300,5.50188818359375,2.82416033744812,0.7435266375541687,-1.5760595798492432
1760471339039850200,5.511850341796875,3.1340320110321045,0.45659899711608887,-1.4785609245300293
1760471339049812000,5.52181201171875,3.4297101497650146,0.04928869009017944,-1.3437869548797607
1760471339059774200,5.531774169921875,3.621643304824829,-0.21981626749038696,-1.2163658142089844
1760471339069736200,5.541736083984375,3.644033670425415,0.04123411327600479,-1.1149530410766602
1760471339079699000,5.551698974609375,3.487650156021118,0.6164292097091675,-1.0693166255950928
1760471339089661200,5.5616611328125,3.2013018131256104,1.148052453994751,-1.0856975317001343
1760471339099623200,5.571623046875,2.8687946796417236,1.386492371559143,-1.114705204963684
1760471339109585200,5.581585205078125,2.5680952072143555,1.3330564498901367,-1.1109365224838257
1760471339119547100,5.591547119140625,2.3309104442596436,0.9928821325302124,-1.0503530502319336
1760471339129509000,5.601509033203125,2.1041958332061768,0.522350549697876,-0.9485901594161987
1760471339139471000,5.61147119140625,1.865875005722046,0.21917949616909027,-0.8044598698616028
1760471339149434000,5.62143408203125,1.5845904350280762,0.10177285969257355,-0.6334798336029053
1760471339159396000,5.63139599609375,1.2636348009109497,0.07855168730020523,-0.47377246618270874
1760471339169358300,5.6413583984375,0.9187452793121338,0.09339942038059235,-0.3402363359928131
1760471339179320300,5.6513203125,0.5676628947257996,0.07604679465293884,-0.24304106831550598
1760471339189282300,5.6612822265625,0.20390470325946808,0.0016330494545400143,-0.16603703796863556
1760471339199244300,5.671244384765625,-0.15848813951015472,-0.17402559518814087,-0.10635025799274445
1760471339209206300,5.681206298828125,-0.49462640285491943,-0.402820348739624,-0.03897589072585106
1760471339219168300,5.691168212890625,-0.7889541983604431,-0.6291157603263855,0.06868425756692886
1760471339229131300,5.70113134765625,-1.0775595903396606,-0.8209917545318604,0.20380932092666626
1760471339239093200,5.71109326171875,-1.4106568098068237,-0.8981592059135437,0.3767952024936676
1760471339249055500,5.721055419921875,-1.8430241346359253,-0.8884782791137695,0.5901089906692505
1760471339259017200,5.731017333984375,-2.34926176071167,-0.8233804702758789,0.8529712557792664
1760471339268979200,5.740979248046875,-2.9157261848449707,-0.8271846771240234,1.171451210975647
1760471339278941400,5.75094140625,-3.5108957290649414,-0.8700919151306152,1.5324350595474243
1760471339288903200,5.760903076171875,-4.09876012802124,-0.9176890850067139,1.9223058223724365
1760471339298865400,5.770865478515625,-4.661764621734619,-1.0317416191101074,2.300762414932251
1760471339308828400,5.780828369140625,-5.180636882781982,-1.2102841138839722,2.6678853034973145
1760471339318790100,5.7907900390625,-5.654912948608398,-1.4886465072631836,3.0108323097229004
1760471339328752400,5.80075244140625,-6.061779022216797,-1.8264878988265991,3.3033206462860107
1760471339338714400,5.81071435546875,-6.4071736335754395,-2.1286118030548096,3.52679705619812
1760471339348676000,5.820676025390625,-6.657261371612549,-2.437152147293091,3.6484875679016113
1760471339358638300,5.830638427734375,-6.789053916931152,-2.737255096435547,3.6397311687469482
1760471339368600300,5.840600341796875,-6.832938194274902,-2.9841320514678955,3.522204637527466
1760471339378562300,5.850562255859375,-6.808725357055664,-3.2375502586364746,3.2847671508789062
1760471339388525300,5.860525390625,-6.738585472106934,-3.329986095428467,2.956389904022217
1760471339398487300,5.8704873046875,-6.613101005554199,-3.2319986820220947,2.597510576248169
1760471339408449300,5.88044921875,-6.480741500854492,-3.001779556274414,2.2645719051361084
1760471339418411300,5.890411376953125,-6.330776691436768,-2.6766974925994873,1.9887950420379639
1760471339428373200,5.900373291015625,-6.018520355224609,-2.266716957092285,1.7652398347854614
1760471339438335200,5.910335205078125,-5.573914051055908,-1.8292789459228516,1.5689127445220947
1760471339448297200,5.920297119140625,-5.020286560058594,-1.4260220527648926,1.3795361518859863
1760471339458259500,5.930259521484375,-4.373645782470703,-1.116038203239441,1.1571017503738403
1760471339468222500,5.940222412109375,-3.6749167442321777,-0.8877918124198914,0.8920860290527344
1760471339478184200,5.95018408203125,-2.9447848796844482,-0.7213061451911926,0.6056774854660034
1760471339488146400,5.960146484375,-2.2209763526916504,-0.6017423868179321,0.2854824364185333
1760471339498108400,5.9701083984375,-1.5276403427124023,-0.49766871333122253,-0.05487249046564102
1760471339508070100,5.980070068359375,-0.8348203897476196,-0.3712100088596344,-0.357285737991333
1760471339518032400,5.990032470703125,-0.12076082080602646,-0.19427169859409332,-0.5586891174316406
1760471339527994400,5.999994384765625,0.5847672820091248,0.04401354864239693,-0.6406190395355225
1760471339537956400,6.009956298828125,1.2903330326080322,0.3070041537284851,-0.6259719133377075
1760471339547919400,6.01991943359375,1.9893312454223633,0.5463473200798035,-0.5719858407974243
1760471339557881300,6.02988134765625,2.6496686935424805,0.7016157507896423,-0.5296253561973572
1760471339567843000,6.039843017578125,3.2557601928710938,0.8430076837539673,-0.534702479839325
1760471339577805300,6.049805419921875,3.838695764541626,0.9861502051353455,-0.5798366665840149
1760471339587767300,6.059767333984375,4.397650718688965,1.1146365404129028,-0.6506029963493347
1760471339597729300,6.069729248046875,4.889548301696777,1.2059626579284668,-0.7521418333053589
1760471339607691300,6.079691162109375,5.310232639312744,1.2877761125564575,-0.8741477131843567
1760471339617654300,6.089654296875,5.7197675704956055,1.3332924842834473,-0.9907512664794922
1760471339627616300,6.0996162109375,6.113982200622559,1.3054704666137695,-1.099106788635254
1760471339637578200,6.109578125,6.50659704208374,1.1460886001586914,-1.16692316532135
1760471339647540200,6.119540283203125,6.837879180908203,1.0914483070373535,-1.213357925415039
1760471339657502200,6.129502197265625,7.0661139488220215,1.2027045488357544,-1.3031057119369507
1760471339667464200,6.139464111328125,7.249937534332275,1.395072340965271,-1.468766450881958
1760471339677426400,6.149426513671875,7.479645729064941,1.5964972972869873,-1.7073395252227783
1760471339687388200,6.15938818359375,7.644442081451416,2.0042080879211426,-1.9973537921905518
1760471339697350100,6.16935009765625,7.630186080932617,2.6275908946990967,-2.3115432262420654
1760471339707313400,6.1793134765625,7.4361419677734375,3.3502259254455566,-2.6199991703033447
1760471339717275400,6.189275390625,7.131168365478516,3.9143612384796143,-2.9527013301849365
1760471339727237000,6.199237060546875,6.742164134979248,4.375743865966797,-3.2828991413116455
1760471339737199400,6.209199462890625,6.348758220672607,4.525515556335449,-3.57460880279541
1760471339747161300,6.219161376953125,5.981861114501953,4.187084197998047,-3.7797064781188965
1760471339757123300,6.229123291015625,5.606137752532959,3.512010097503662,-3.7877657413482666
1760471339767085300,6.239085205078125,5.205870151519775,2.699112892150879,-3.570709705352783
1760471339777047000,6.249047119140625,4.806423664093018,1.8669931888580322,-3.235654354095459
1760471339787010300,6.25901025390625,4.3939948081970215,1.1633594036102295,-2.8660173416137695
1760471339796972300,6.26897216796875,3.9241669178009033,0.7335677742958069,-2.482649326324463
1760471339806934300,6.278934326171875,3.374352216720581,0.6025924682617188,-2.0649521350860596
1760471339816896300,6.288896240234375,2.808795690536499,0.7352151870727539,-1.616955280303955
1760471339826858200,6.298858154296875,2.2430219650268555,0.9325607419013977,-1.2057631015777588
1760471339836820500,6.308820556640625,1.6855580806732178,1.056939721107483,-0.8806305527687073
1760471339846782200,6.3187822265625,1.1177706718444824,1.016952395439148,-0.6115631461143494
1760471339856744200,6.328744140625,0.4370581805706024,0.8381068110466003,-0.31741273403167725
1760471339866707200,6.338707275390625,-0.3651898205280304,0.6670112013816833,0.06267788261175156
1760471339876669200,6.348669189453125,-1.1939115524291992,0.44439998269081116,0.529557466506958
1760471339886631200,6.358631103515625,-1.9639205932617188,0.11379345506429672,1.0879435539245605
1760471339896593400,6.368593505859375,-2.6627187728881836,-0.3324844539165497,1.6988942623138428
1760471339906555100,6.37855517578125,-3.278627634048462,-0.878058910369873,2.2944388389587402
1760471339916517400,6.388517333984375,-3.8282957077026367,-1.385321855545044,2.8183252811431885
1760471339926479400,6.398479248046875,-4.318920612335205,-1.6788053512573242,3.240205764770508
1760471339936441000,6.408441162109375,-4.7798686027526855,-1.8771839141845703,3.5443191528320312
1760471339946404000,6.418404052734375,-5.239269733428955,-2.1039764881134033,3.7302699089050293
1760471339956366300,6.428366455078125,-5.680032253265381,-2.3992884159088135,3.8066933155059814
1760471339966328300,6.438328369140625,-6.07105016708374,-2.628100872039795,3.8115017414093018
1760471339976290300,6.448290283203125,-6.416179656982422,-2.7590320110321045,3.783229351043701
1760471339986252300,6.458252197265625,-6.712449073791504,-2.921431303024292,3.7568469047546387
1760471339996214300,6.46821435546875,-6.926613807678223,-3.204583168029785,3.722263813018799
1760471340006176300,6.47817626953125,-7.04806661605835,-3.446815252304077,3.6676254272460938
1760471340016138200,6.48813818359375,-7.092763900756836,-3.482440710067749,3.616083860397339
1760471340026101200,6.498101318359375,-7.0721845626831055,-3.4510586261749268,3.579230785369873
1760471340036063200,6.508063232421875,-7.01044225692749,-3.455559015274048,3.529567241668701
1760471340046025200,6.518025146484375,-6.939182281494141,-3.4926977157592773,3.4446206092834473
1760471340055987500,6.527987548828125,-6.853790283203125,-3.4313933849334717,3.3188061714172363
1760471340065949200,6.53794921875,-6.70115852355957,-3.218036413192749,3.1355702877044678
1760471340075911200,6.5479111328125,-6.414504528045654,-2.957200050354004,2.910144329071045
1760471340085873400,6.557873291015625,-5.99342679977417,-2.7264089584350586,2.6206674575805664
1760471340095835100,6.567835205078125,-5.467586994171143,-2.537946939468384,2.2299177646636963
1760471340105797400,6.57779736328125,-4.902769565582275,-2.2939131259918213,1.78364896774292
1760471340115760400,6.587760498046875,-4.337474346160889,-1.9892652034759521,1.3572931289672852
1760471340125722000,6.59772216796875,-3.810168981552124,-1.6526119709014893,1.0010164976119995
1760471340135684400,6.607684326171875,-3.2822353839874268,-1.3121731281280518,0.726172924041748
1760471340145646300,6.617646240234375,-2.699059009552002,-1.0064828395843506,0.4943608045578003
1760471340155608000,6.627608154296875,-2.0915684700012207,-0.7268062233924866,0.29771432280540466
1760471340165570300,6.6375703125,-1.4690818786621094,-0.45334678888320923,0.15044817328453064
1760471340175532300,6.6475322265625,-0.8376975655555725,-0.2526709735393524,0.04257310554385185
1760471340185493500,6.657493408203125,-0.257344514131546,-0.10175076872110367,-0.026674531400203705
1760471340195456500,6.66745654296875,0.2890101671218872,0.039246030151844025,-0.08585076779127121
1760471340205418500,6.67741845703125,0.8552618622779846,0.19904294610023499,-0.14114822447299957
1760471340215380500,6.68738037109375,1.449396014213562,0.3987443447113037,-0.18542221188545227
1760471340225342500,6.697342529296875,2.0586776733398438,0.6159524917602539,-0.2204238772392273
1760471340235304700,6.7073046875,2.636617660522461,0.7835683822631836,-0.24739129841327667
1760471340245266400,6.717266357421875,3.174423933029175,0.8914729952812195,-0.2677628993988037
1760471340255228400,6.727228515625,3.708833932876587,0.9784630537033081,-0.28027471899986267
1760471340265190700,6.737190673828125,4.265727519989014,1.0797227621078491,-0.2851967513561249
1760471340275153700,6.747153564453125,4.828779220581055,1.1987268924713135,-0.3053435683250427
1760471340285115400,6.757115478515625,5.324489593505859,1.336824655532837,-0.36871784925460815
1760471340295077600,6.76707763671875,5.780356407165527,1.4888008832931519,-0.48282524943351746
1760471340305039600,6.77703955078125,6.241677284240723,1.70038902759552,-0.6324630379676819
1760471340315001600,6.787001708984375,6.6728034019470215,1.9894258975982666,-0.8038493990898132
1760471340324963600,6.796963623046875,6.9914140701293945,2.2881577014923096,-0.9736207127571106
1760471340334925300,6.80692529296875,7.114454746246338,2.594208002090454,-1.1571308374404907
1760471340344887600,6.816887451171875,7.171841144561768,2.956528902053833,-1.3771861791610718
1760471340354849500,6.826849609375,7.229617118835449,3.4671144485473633,-1.6833351850509644
1760471340364812500,6.8368125,7.319593906402588,3.79526424407959,-2.071288824081421
1760471340374774500,6.8467744140625,7.387824058532715,3.8894424438476562,-2.4864580631256104
1760471340384736500,6.856736572265625,7.332317352294922,3.7565793991088867,-2.844069004058838
1760471340394698500,6.866698486328125,7.137788772583008,3.699350118637085,-3.0859787464141846
1760471340404660500,6.876660400390625,6.799313068389893,3.7630531787872314,-3.185835361480713
1760471340414622500,6.88662255859375,6.437282085418701,3.9588119983673096,-3.16851806640625
1760471340424584700,6.896584716796875,6.0254621505737305,4.245131969451904,-3.0648152828216553
1760471340434546400,6.90654638671875,5.54263973236084,4.179098606109619,-2.9033560752868652
1760471340444509400,6.916509521484375,5.091782569885254,3.721524715423584,-2.6821157932281494
1760471340454471700,6.9264716796875,4.7061309814453125,3.1198267936706543,-2.3863821029663086
1760471340464433400,6.936433349609375,4.380889892578125,2.5339558124542236,-2.012763023376465
1760471340474395400,6.9463955078125,4.166132926940918,1.9953887462615967,-1.603234052658081
1760471340484357600,6.956357666015625,4.031225204467773,1.467795968055725,-1.1868966817855835
1760471340494319400,6.9663193359375,4.041398525238037,0.8879935145378113,-0.8188177943229675
1760471340504281600,6.976281494140625,4.150278568267822,0.2725962698459625,-0.6063044667243958
1760471340514243600,6.98624365234375,4.243137836456299,0.048314157873392105,-0.5908474326133728
1760471340524205600,6.99620556640625,4.157423973083496,0.20241212844848633,-0.7489404678344727
1760471340534168600,7.00616845703125,3.850485324859619,0.5100093483924866,-1.0083297491073608
1760471340544130600,7.016130615234375,3.383394718170166,0.7682582139968872,-1.2614896297454834
1760471340554092300,7.02609228515625,2.8689372539520264,0.7928197383880615,-1.3951811790466309
1760471340564054500,7.036054443359375,2.3938536643981934,0.5456067323684692,-1.341983437538147
1760471340574016500,7.0460166015625,1.9134072065353394,0.14981786906719208,-1.1122088432312012
1760471340583978500,7.055978515625,1.441827416419983,-0.2805883288383484,-0.7384397983551025
1760471340593940500,7.0659404296875,0.9586939811706543,-0.7291940450668335,-0.3039591908454895
1760471340603902500,7.07590234375,0.43829795718193054,-1.1314808130264282,0.12168008089065552
1760471340613864400,7.085864501953125,-0.16014814376831055,-1.447498083114624,0.48679840564727783
1760471340623827500,7.095827392578125,-0.8262990713119507,-1.775505781173706,0.749120831489563
1760471340633789400,7.10578955078125,-1.4968695640563965,-2.137195587158203,0.8839356303215027
1760471340643751700,7.115751708984375,-2.2316930294036865,-2.467064380645752,0.9283707737922668
1760471340653713400,7.12571337890625,-3.01853084564209,-2.855855703353882,0.9605231285095215
1760471340663675600,7.135675537109375,-3.730630874633789,-3.2347819805145264,1.0417410135269165
1760471340673637600,7.1456376953125,-4.339444160461426,-3.522488832473755,1.1907806396484375
1760471340683599400,7.155599365234375,-4.845130443572998,-3.7774598598480225,1.394970178604126
1760471340693561600,7.1655615234375,-5.265458106994629,-4.112154483795166,1.6314162015914917
1760471340703523600,7.175523681640625,-5.646017074584961,-4.549374580383301,1.8682565689086914
1760471340713486300,7.185486328125,-6.052450656890869,-4.834391117095947,2.0911824703216553
1760471340723448600,7.195448486328125,-6.501259803771973,-4.941164016723633,2.265791416168213
1760471340733410600,7.20541064453125,-6.877218246459961,-4.843404293060303,2.3744518756866455
1760471340743372500,7.21537255859375,-7.144427299499512,-4.620049953460693,2.4284613132476807
1760471340753334500,7.22533447265625,-7.171133518218994,-4.364471435546875,2.4615137577056885
1760471340763296500,7.235296630859375,-6.922645568847656,-3.9432342052459717,2.512636661529541
1760471340773258500,7.245258544921875,-6.480438709259033,-3.4945290088653564,2.514340877532959
1760471340783220500,7.255220458984375,-5.859727382659912,-3.1526122093200684,2.323997735977173
1760471340793182700,7.2651826171875,-5.186284065246582,-2.8538506031036377,1.9994735717773438
1760471340803145500,7.2751455078125,-4.642637729644775,-2.4720101356506348,1.6499425172805786
1760471340813107500,7.285107421875,-4.237009525299072,-1.8340919017791748,1.40288507938385
1760471340823069700,7.295069580078125,-3.845055103302002,-1.0759024620056152,1.2892296314239502
1760471340833031400,7.305031494140625,-3.428954839706421,-0.5001821517944336,1.1760677099227905
1760471340842993400,7.314993408203125,-2.987121820449829,-0.15134921669960022,1.0064473152160645
1760471340852955600,7.32495556640625,-2.459526300430298,-0.07070364058017731,0.7452386617660522
1760471340862917400,7.33491748046875,-1.8386292457580566,-0.19737157225608826,0.4833804965019226
1760471340872879600,7.344879638671875,-1.2290934324264526,-0.5418437123298645,0.26985329389572144
1760471340882841600,7.354841552734375,-0.549140214920044,-0.8969137072563171,0.1761469542980194
1760471340892804600,7.3648046875,0.1768001765012741,-1.0647852420806885,0.19524528086185455
1760471340902766600,7.3747666015625,0.9800353050231934,-0.9577916860580444,0.258532851934433
1760471340912728600,7.384728515625,1.8391518592834473,-0.7153012752532959,0.2790197432041168
1760471340922690600,7.394690673828125,2.6759250164031982,-0.46888503432273865,0.20588457584381104
1760471340932652500,7.404652587890625,3.4150049686431885,-0.2163049876689911,0.07812689244747162
1760471340942614500,7.414614501953125,4.058968544006348,0.3182739317417145,-0.09269139915704727
1760471340952576500,7.424576416015625,4.580943584442139,0.9217153787612915,-0.39775463938713074
1760471340962538500,7.43453857421875,4.851108551025391,1.1549590826034546,-0.8001992702484131
1760471340972500500,7.44450048828125,5.022620677947998,1.6087175607681274,-1.1049787998199463
1760471340982463500,7.45446337890625,5.389875411987305,2.220444679260254,-1.2493042945861816
1760471340992425500,7.464425537109375,5.915469169616699,2.778053045272827,-1.299182653427124
1760471341002387500,7.474387451171875,6.609826564788818,3.0454702377319336,-1.3340681791305542
1760471341012349700,7.484349609375,7.341248035430908,2.9180827140808105,-1.3733316659927368
1760471341022311400,7.4943115234375,7.996158599853516,2.5362062454223633,-1.4399259090423584
1760471341032273400,7.5042734375,8.58869743347168,2.1231157779693604,-1.545986533164978
1760471341042235600,7.514235595703125,9.161157608032227,1.7721562385559082,-1.6375385522842407
1760471341052197400,7.524197265625,9.52557373046875,1.8838646411895752,-1.6238237619400024
1760471341062159600,7.53415966796875,9.622936248779297,2.2751803398132324,-1.5811296701431274
1760471341072122600,7.54412255859375,9.5502290725708,2.8736157417297363,-1.5940619707107544
1760471341082084400,7.55408447265625,9.045645713806152,3.63631534576416,-1.682476282119751
1760471341092046600,7.564046630859375,8.011038780212402,4.369506359100342,-1.8890279531478882
1760471341102008600,7.574008544921875,6.986708641052246,4.614139080047607,-2.2202847003936768
1760471341111970300,7.58397021484375,6.468264102935791,4.371916770935059,-2.6552226543426514
1760471341121932500,7.5939326171875,6.147572040557861,3.849637985229492,-3.0579261779785156
1760471341131894500,7.60389453125,6.083693981170654,3.1736602783203125,-3.2739737033843994
1760471341141856500,7.6138564453125,6.123556137084961,2.5272154808044434,-3.198255777359009
1760471341151818500,7.623818603515625,5.793391227722168,1.9321486949920654,-2.883824586868286
1760471341161781500,7.633781494140625,5.375783920288086,1.4041733741760254,-2.469541311264038
1760471341171743700,7.64374365234375,5.018657207489014,0.8786294460296631,-2.0522751808166504
1760471341181706200,7.653706298828125,4.688030242919922,0.4714268743991852,-1.6204581260681152
1760471341191668200,7.663668212890625,4.158823490142822,0.49591758847236633,-1.1634316444396973
1760471341201630200,7.673630126953125,3.486907958984375,0.6552208065986633,-0.7863932251930237
1760471341211592200,7.68359228515625,2.82249116897583,0.6891185641288757,-0.5613071322441101
1760471341221554200,7.69355419921875,2.2105653285980225,0.5498301386833191,-0.4769895672798157
1760471341231516200,7.70351611328125,1.4651051759719849,0.42255523800849915,-0.4448617398738861
1760471341241478100,7.71347802734375,0.5832703709602356,0.10919995605945587,-0.4066734313964844
1760471341251440400,7.7234404296875,-0.2353200763463974,-0.42938467860221863,-0.3176378309726715
1760471341261403100,7.733403076171875,-0.9850254654884338,-0.9839041829109192,-0.14017657935619354
1760471341271365000,7.743365234375,-1.764319658279419,-1.349592924118042,0.08935941755771637
1760471341281327400,7.753327392578125,-2.57016658782959,-1.6013611555099487,0.3029707074165344
1760471341291289000,7.7632890625,-3.293647527694702,-1.9231772422790527,0.4308256208896637
1760471341301251000,7.7732509765625,-3.944291591644287,-2.3281824588775635,0.4579288959503174
1760471341311213300,7.78321337890625,-4.5385661125183105,-2.6111841201782227,0.4363730251789093
1760471341321175000,7.793175048828125,-5.041037082672119,-2.7387423515319824,0.4026647210121155
1760471341331137300,7.80313720703125,-5.446125030517578,-2.826561689376831,0.36078572273254395
1760471341341099300,7.813099365234375,-5.7818522453308105,-2.7829442024230957,0.3529065251350403
1760471341351062300,7.823062255859375,-6.098600387573242,-2.7053732872009277,0.42956188321113586
1760471341361024300,7.833024169921875,-6.316357612609863,-2.7982916831970215,0.5828200578689575
1760471341370986200,7.842986328125,-6.500987529754639,-3.007434606552124,0.8009087443351746
1760471341380948200,7.8529482421875,-6.775313377380371,-3.2926197052001953,1.0442159175872803
1760471341390910200,7.86291015625,-7.132475852966309,-3.6149563789367676,1.25933039188385
1760471341400872200,7.8728720703125,-7.342657566070557,-4.200433731079102,1.4365688562393188
1760471341410834200,7.882834228515625,-7.391526222229004,-4.882196426391602,1.5944920778274536
1760471341420796200,7.892796142578125,-7.421748638153076,-5.225686550140381,1.7290016412734985
1760471341430758100,7.902758056640625,-7.436127662658691,-5.034311294555664,1.7602567672729492
1760471341440721200,7.91272119140625,-7.421162128448486,-4.341060161590576,1.6236661672592163
1760471341450683100,7.92268310546875,-7.374048233032227,-3.461982488632202,1.290419578552246
1760471341460645000,7.93264501953125,-7.200288772583008,-2.589876890182495,0.8185450434684753
1760471341470607400,7.942607421875,-6.987422943115234,-1.7141433954238892,0.3343442976474762
1760471341480569000,7.952569091796875,-6.821774482727051,-1.005548119544983,-0.08140385895967484
1760471341490531300,7.96253125,-6.6033430099487305,-0.5101341009140015,-0.3363026976585388
1760471341500493300,7.972493408203125,-6.299757480621338,-0.2536843419075012,-0.4165143370628357
1760471341510455000,7.982455078125,-5.930611610412598,-0.16933591663837433,-0.36326414346694946
1760471341520417300,7.992417236328125,-5.5351033210754395,-0.2675343155860901,-0.2385324090719223
1760471341530379300,8.002379150390626,-4.931649684906006,-0.5311579704284668,-0.07734218239784241
1760471341540342000,8.012342041015625,-4.175866603851318,-0.7542185187339783,0.08077345788478851
1760471341550304300,8.02230419921875,-3.602308511734009,-0.7597245573997498,0.2662051022052765
1760471341560266200,8.032266357421875,-2.8810665607452393,-0.8323909640312195,0.4519534707069397
1760471341570228200,8.042228271484374,-1.78777015209198,-1.031461477279663,0.5368425250053406
1760471341580190200,8.052190185546875,-0.5422453284263611,-0.9901238679885864,0.5713853240013123
1760471341590152200,8.062152099609374,0.4930124878883362,-0.42324498295783997,0.5475910305976868
1760471341600114200,8.0721142578125,1.466275691986084,0.3506793975830078,0.4396836459636688
1760471341610076200,8.082076171875,2.370617389678955,0.9637334942817688,0.2660822868347168
1760471341620038100,8.0920380859375,3.1580264568328857,1.370744228363037,0.10025975108146667
1760471341630000000,8.102000244140624,3.8573570251464844,1.7371571063995361,-0.02293488383293152
1760471341639963100,8.111963134765626,4.526803016662598,2.1539368629455566,-0.11202376335859299
1760471341649925000,8.121925048828125,5.167747974395752,2.592200756072998,-0.1966819316148758
1760471341659887000,8.13188720703125,5.713536739349365,3.0094339847564697,-0.29831522703170776
1760471341669849000,8.14184912109375,6.151956081390381,3.389810562133789,-0.41746264696121216
1760471341679811300,8.151811279296876,6.573238849639893,3.6615421772003174,-0.5365054607391357
1760471341689773000,8.16177294921875,6.923643112182617,3.7362518310546875,-0.6451821327209473
1760471341699735000,8.171735107421876,7.272680282592773,3.6546075344085693,-0.7379969358444214
1760471341709697300,8.181697265625,7.758020877838135,3.642462730407715,-0.8323870897293091
1760471341719659000,8.191658935546876,8.160122871398926,3.8865296840667725,-0.9033640027046204
1760471341729621200,8.201621337890625,8.218467712402344,4.146771430969238,-0.9067502021789551
1760471341739584300,8.211584228515624,8.000212669372559,4.134810924530029,-0.7843407988548279
1760471341749546200,8.221546142578125,7.6548261642456055,3.817972421646118,-0.5519757270812988
1760471341759508200,8.23150830078125,7.350632667541504,3.3815250396728516,-0.31473827362060547
1760471341769470200,8.24147021484375,7.370903015136719,3.230837345123291,-0.2186143845319748
1760471341779432200,8.25143212890625,7.424576282501221,3.3065237998962402,-0.32276061177253723
1760471341789394200,8.261394287109376,7.209753036499023,3.2002859115600586,-0.598382830619812
1760471341799356200,8.271356201171875,6.886594772338867,2.715235710144043,-0.9759373068809509
1760471341809318400,8.281318359375,6.522890567779541,2.143490791320801,-1.3022574186325073
1760471341819280100,8.291280029296875,6.11421537399292,1.7921779155731201,-1.4284685850143433
1760471341829242000,8.3012421875,5.650350093841553,1.7266883850097656,-1.379705548286438
1760471341839205400,8.311205322265625,5.180331707000732,1.6727432012557983,-1.203521966934204
1760471341849167000,8.3211669921875,4.7873454093933105,1.4713871479034424,-0.8989822864532471
1760471341859129000,8.331129150390625,4.374501705169678,1.2600483894348145,-0.47934630513191223
1760471341869091300,8.34109130859375,3.8773815631866455,0.971015453338623,-0.05133878067135811
1760471341879053000,8.351052978515625,3.4216086864471436,0.6714932918548584,0.2969023287296295
1760471341889015300,8.361015380859374,2.8795857429504395,0.5073621273040771,0.5314958691596985
1760471341898977300,8.370977294921875,2.1964304447174072,0.4383876621723175,0.6307637691497803
1760471341908939000,8.38093896484375,1.4925447702407837,0.3992629051208496,0.5988630652427673
1760471341918901200,8.3909013671875,0.9180352687835693,0.28139543533325195,0.45483875274658203
1760471341928863200,8.40086328125,0.30076995491981506,0.08324028551578522,0.3065246343612671
1760471341938826000,8.410825927734376,-0.5334540009498596,-0.322677880525589,0.1498679667711258
1760471341948788200,8.420788330078125,-1.5258177518844604,-0.9155883193016052,-0.021930156275629997
1760471341958750200,8.430750244140626,-2.5232253074645996,-1.5469739437103271,-0.18795523047447205
1760471341968712200,8.440712158203125,-3.412952184677124,-2.1417927742004395,-0.28894683718681335
1760471341978674200,8.450674072265626,-4.132904052734375,-2.5830330848693848,-0.2822364866733551
1760471341988636200,8.46063623046875,-4.705330848693848,-2.830345392227173,-0.15870817005634308
1760471341998598100,8.47059814453125,-5.170223236083984,-3.0159637928009033,0.01167460810393095
1760471342008560000,8.48056005859375,-5.6055145263671875,-3.1806936264038086,0.13679897785186768
1760471342018522400,8.4905224609375,-6.144819736480713,-3.196770668029785,0.17991159856319427
1760471342028484000,8.500484130859375,-6.789783477783203,-3.031776189804077,0.15639403462409973
1760471342038447000,8.510447021484374,-7.447237968444824,-2.6556320190429688,0.17106260359287262
1760471342048409300,8.520409423828125,-7.855284214019775,-2.45821475982666,0.2441464066505432
1760471342058371300,8.530371337890625,-7.963214874267578,-2.495584011077881,0.3156031668186188
1760471342068333000,8.5403330078125,-7.974591255187988,-2.5268075466156006,0.3412992060184479
1760471342078295300,8.55029541015625,-8.176546096801758,-2.417221784591675,0.34349295496940613
1760471342088257000,8.560257080078125,-8.554204940795898,-2.3596246242523193,0.34564369916915894
1760471342098219300,8.57021923828125,-8.823298454284668,-2.561248302459717,0.3883512616157532
1760471342108181200,8.58018115234375,-8.917906761169434,-3.080271005630493,0.5210645198822021
1760471342118143000,8.59014306640625,-8.910040855407715,-3.548764228820801,0.7743385434150696
1760471342128105200,8.600105224609376,-8.760842323303223,-3.7951996326446533,1.1198920011520386
1760471342138067200,8.610067138671875,-8.348196983337402,-3.7675740718841553,1.4953521490097046
1760471342148029200,8.620029296875,-7.802816390991211,-3.481401205062866,1.8113594055175781
1760471342157992200,8.6299921875,-7.232904434204102,-3.054088592529297,1.9498860836029053
1760471342167954200,8.6399541015625,-6.667863368988037,-2.539550304412842,1.816622018814087
1760471342177916400,8.64991650390625,-6.062952518463135,-1.9167124032974243,1.433988094329834
1760471342187877600,8.659877685546874,-5.428982257843018,-1.10456120967865,0.8964000344276428
1760471342197839600,8.669839599609375,-4.809329509735107,-0.16937634348869324,0.3424713611602783
1760471342207801600,8.679801513671874,-4.215157985687256,0.5850495100021362,-0.12038843333721161
1760471342217763600,8.689763671875,-3.587658405303955,0.9653220772743225,-0.4531656503677368
1760471342227725800,8.699725830078124,-2.8636085987091064,0.9443656206130981,-0.6479982137680054
1760471342237687600,8.7096875,-2.0590648651123047,0.6973822712898254,-0.6738489866256714
1760471342247649800,8.71964990234375,-1.2814810276031494,0.4023168087005615,-0.5342831015586853
1760471342257611800,8.72961181640625,-0.5133334994316101,0.13886064291000366,-0.29551392793655396
1760471342267574800,8.73957470703125,0.2517266273498535,-0.041404735296964645,-0.0704382061958313
1760471342277536500,8.74953662109375,1.0089486837387085,-0.025034306570887566,0.05695609748363495
1760471342287498800,8.759498779296875,1.722236156463623,0.10191565006971359,0.07841318845748901
1760471342297460700,8.769460693359376,2.359097719192505,0.2896912693977356,0.011807439848780632
1760471342307422700,8.779422607421875,2.9244396686553955,0.520171582698822,-0.08222558349370956
1760471342317384700,8.789384765625,3.4373724460601807,0.8105235695838928,-0.15595711767673492
1760471342327346700,8.7993466796875,3.9711380004882812,1.1230449676513672,-0.2099497765302658
1760471342337308700,8.80930859375,4.507012844085693,1.4420723915100098,-0.25402092933654785
1760471342347270700,8.819270751953125,5.024207592010498,1.7707245349884033,-0.2892833352088928
1760471342357233000,8.82923291015625,5.514920234680176,2.1030783653259277,-0.298615962266922
1760471342367194600,8.839194580078125,5.955727577209473,2.4815075397491455,-0.28575554490089417
1760471342377157600,8.84915771484375,6.316125392913818,2.9130160808563232,-0.2926177978515625
1760471342387119900,8.859119873046875,6.597899436950684,3.3342630863189697,-0.3656664490699768
1760471342397081600,8.86908154296875,6.848368167877197,3.595733165740967,-0.47663071751594543
1760471342407043600,8.879043701171875,6.95233154296875,3.529021978378296,-0.6189702749252319
1760471342417005800,8.889005859375,7.029726982116699,3.262601613998413,-0.7905091047286987
1760471342426967600,8.898967529296876,7.158510208129883,3.123079538345337,-0.9660950303077698
1760471342436929800,8.9089296875,7.270306587219238,3.0291242599487305,-1.1132642030715942
1760471342446891800,8.918891845703126,7.341963291168213,3.1541693210601807,-1.2252682447433472
1760471342456853500,8.928853515625,7.2941975593566895,3.303800344467163,-1.3244235515594482
1760471342466815700,8.938815673828126,7.225846767425537,3.308638334274292,-1.4418470859527588
1760471342476777700,8.94877783203125,7.163439750671387,2.912480592727661,-1.6116585731506348
1760471342486740500,8.958740478515624,7.290805816650391,2.3933677673339844,-1.7541766166687012
1760471342496702700,8.96870263671875,7.372968673706055,2.0953927040100098,-1.7136831283569336
1760471342506664700,8.978664794921874,7.3076605796813965,2.095557689666748,-1.5109331607818604
1760471342516626700,8.988626708984375,6.960797309875488,2.3361048698425293,-1.2626698017120361
1760471342526588700,8.998588623046874,6.403595447540283,2.3706278800964355,-1.0241402387619019
1760471342536550700,9.008550537109375,5.87084436416626,2.0483357906341553,-0.7930049300193787
1760471342546512600,9.0185126953125,5.4749040603637695,1.6244995594024658,-0.5248347520828247
1760471342556474600,9.028474609375,5.19793176651001,1.4595435857772827,-0.24457807838916779
1760471342566436900,9.038436767578125,4.771108627319336,1.4985413551330566,-0.03238033503293991
1760471342576398600,9.048398681640625,4.183670997619629,1.3104972839355469,0.04774637892842293
1760471342586360600,9.058360595703125,3.600553274154663,0.7807636260986328,0.004509424790740013
1760471342596322800,9.06832275390625,3.0448098182678223,0.3115270733833313,-0.08575199544429779
1760471342606285800,9.078285888671875,2.4251363277435303,0.0248151496052742,-0.16435226798057556
1760471342616247600,9.08824755859375,1.727135181427002,-0.1343102753162384,-0.23549459874629974
1760471342626209800,9.098209716796875,0.9603986144065857,-0.20167945325374603,-0.30741167068481445
1760471342636171500,9.108171630859376,0.15474379062652588,-0.35914844274520874,-0.3715793192386627
1760471342646133800,9.1181337890625,-0.6608359217643738,-0.5635319352149963,-0.3797709345817566
1760471342656095700,9.128095703125,-1.4503453969955444,-0.7142095565795898,-0.32128530740737915
1760471342666057500,9.138057373046875,-2.2401230335235596,-0.7245913147926331,-0.2428368479013443
1760471342676019700,9.148019775390624,-3.0582191944122314,-0.7146990299224854,-0.17197951674461365
1760471342685981700,9.157981689453125,-3.847360134124756,-0.9413305521011353,-0.09834843873977661
1760471342695943700,9.167943603515624,-4.509810447692871,-1.3944295644760132,-0.010862831026315689
1760471342705905700,9.17790576171875,-5.068122863769531,-1.9132964611053467,0.09429794549942017
1760471342715867600,9.18786767578125,-5.592005252838135,-2.4395501613616943,0.19921690225601196
1760471342725831000,9.197830810546876,-6.165480613708496,-2.7805206775665283,0.25480401515960693
1760471342735792600,9.207792724609375,-6.772135257720947,-2.859306573867798,0.2592381536960602
1760471342745754600,9.217754638671876,-7.264021396636963,-2.9647281169891357,0.2377016842365265
1760471342755716900,9.227716796875,-7.688250541687012,-2.8918964862823486,0.25371432304382324
1760471342765678600,9.2376787109375,-8.047834396362305,-2.71630597114563,0.3200230300426483
1760471342775640800,9.247640869140625,-8.381071090698242,-2.476125955581665,0.4361359477043152
1760471342785602800,9.257602783203126,-8.750654220581055,-2.2747535705566406,0.6299168467521667
1760471342795564500,9.267564453125,-8.996199607849121,-2.273634672164917,0.8930677175521851
1760471342805526800,9.27752685546875,-9.118341445922852,-2.205211639404297,1.233421802520752
1760471342815488500,9.287488525390625,-8.977088928222656,-2.111924886703491,1.5917351245880127
1760471342825450800,9.29745068359375,-8.535605430603027,-2.276794672012329,1.8480278253555298
1760471342835412700,9.307412841796875,-7.912376403808594,-2.5404751300811768,1.9672359228134155
1760471342845374500,9.31737451171875,-7.301970481872559,-2.675466775894165,1.9556444883346558
1760471342855337700,9.327337646484375,-6.812893867492676,-2.552438974380493,1.8351422548294067
1760471342865299700,9.3372998046875,-6.54242467880249,-2.1324331760406494,1.5540426969528198
1760471342875261700,9.34726171875,-6.3091721534729,-1.5389504432678223,1.0526753664016724
1760471342885223700,9.3572236328125,-5.954214096069336,-0.8330335021018982,0.4510561227798462
1760471342895185700,9.367185546875,-5.3976945877075195,-0.1439906507730484,-0.059617649763822556
1760471342905148000,9.37714794921875,-4.674051761627197,0.382076621055603,-0.34479957818984985
1760471342915109600,9.387109619140626,-3.9062283039093018,0.650336503982544,-0.39515647292137146
1760471342925071600,9.397071533203125,-3.1971328258514404,0.6201719641685486,-0.30196020007133484
1760471342935033900,9.407033935546876,-2.520791530609131,0.3515031039714813,-0.15783962607383728
1760471342944995600,9.41699560546875,-1.8403921127319336,0.021556634455919266,-0.01859837770462036
1760471342954957800,9.426957763671876,-1.1608588695526123,-0.18417158722877502,0.10113538056612015
1760471342964919800,9.436919921875,-0.5438758730888367,-0.2101895958185196,0.17261753976345062
1760471342974881500,9.446881591796876,0.050204239785671234,-0.11397042125463486,0.16724292933940887
1760471342984844800,9.4568447265625,0.6529974341392517,0.08340097218751907,0.10909654200077057
1760471342994806800,9.466806884765624,1.2486165761947632,0.32599860429763794,0.013666382059454918
1760471343004768500,9.4767685546875,1.8684518337249756,0.5147085785865784,-0.10433854907751083
1760471343014730800,9.486730712890624,2.489102840423584,0.6663243770599365,-0.23898403346538544
1760471343024692700,9.496692626953125,3.066077470779419,0.8060953617095947,-0.37604576349258423
1760471343034654700,9.50665478515625,3.612799644470215,0.8926229476928711,-0.5012253522872925
1760471343044616700,9.51661669921875,4.150830268859863,0.9313924312591553,-0.5758479237556458
1760471343054578700,9.52657861328125,4.646175384521484,0.9720215797424316,-0.6085637807846069
1760471343064540700,9.536540771484376,5.134525775909424,1.0060946941375732,-0.617615282535553
1760471343074502700,9.546502685546875,5.6786417961120605,1.1306588649749756,-0.6490854024887085
1760471343084465000,9.55646484375,6.21467924118042,1.3601802587509155,-0.7537886500358582
1760471343094426600,9.566426513671875,6.709762096405029,1.580094337463379,-0.9425854086875916
1760471343104388600,9.576388671875,7.083158493041992,1.8592610359191895,-1.2057688236236572
1760471343114351900,9.586351806640625,7.303509712219238,2.1542856693267822,-1.5232312679290771
1760471343124313600,9.596313720703124,7.347294807434082,2.280956745147705,-1.856173038482666
1760471343134275600,9.606275634765625,7.322829723358154,2.120917797088623,-2.1934256553649902
1760471343144237800,9.61623779296875,7.375462055206299,2.0740346908569336,-2.510955572128296
1760471343154199600,9.626199462890625,7.378458499908447,2.300938367843628,-2.712289571762085
1760471343164161800,9.636161865234374,7.405292510986328,2.5439701080322266,-2.7486460208892822
1760471343174123800,9.646123779296875,7.405406475067139,2.755664825439453,-2.583092451095581
1760471343184089600,9.656089599609375,7.160083770751953,2.6802690029144287,-2.2337751388549805
1760471343194051600,9.666051513671874,6.78055477142334,2.2358949184417725,-1.7955189943313599
1760471343204013600,9.676013671875,6.444228172302246,1.6303118467330933,-1.3960533142089844
1760471343213975600,9.6859755859375,6.188047885894775,1.398937702178955,-1.05854332447052
1760471343223937500,9.6959375,5.769885540008545,1.5615793466567993,-0.7831622958183289
1760471343233899500,9.7058994140625,5.241238594055176,1.6999996900558472,-0.6207289099693298
1760471343243861800,9.71586181640625,4.750270843505859,1.6799194812774658,-0.5741832852363586
1760471343253824500,9.725824462890625,4.26578426361084,1.5011098384857178,-0.5777544975280762
1760471343263786500,9.735786376953126,3.7902793884277344,1.2309683561325073,-0.5845540761947632
1760471343273748700,9.745748779296875,3.3183555603027344,0.9403284788131714,-0.5869330763816833
1760471343283710500,9.75571044921875,2.835476875305176,0.607425332069397,-0.5987039804458618
1760471343293672400,9.76567236328125,2.2551064491271973,0.3464120924472809,-0.5930533409118652
1760471343303634700,9.775634765625,1.546074628829956,0.10924401879310608,-0.5268487334251404
1760471343313596400,9.785596435546875,0.7770796418190002,-0.11590585112571716,-0.36276766657829285
1760471343323558700,9.79555859375,0.018647318705916405,-0.3058115839958191,-0.13936468958854675
1760471343333520600,9.805520751953125,-0.9331098198890686,-0.34437498450279236,0.10776437073945999
1760471343343482400,9.815482421875,-1.923448920249939,-0.5267295837402344,0.24241378903388977
1760471343353444600,9.825444580078125,-2.8795340061187744,-0.7701272368431091,0.3156490921974182
1760471343363406600,9.835406494140624,-3.8294360637664795,-1.0430908203125,0.34076377749443054
1760471343373368600,9.84536865234375,-4.6937785148620605,-1.4423409700393677,0.3564360737800598
1760471343383330600,9.85533056640625,-5.403567314147949,-1.8644319772720337,0.3907855153083801
1760471343393293600,9.86529345703125,-5.97312068939209,-2.166663408279419,0.4553214907646179
1760471343403255600,9.875255615234375,-6.500393390655518,-2.2684271335601807,0.5436926484107971
1760471343413217500,9.885217529296876,-6.967555522918701,-2.3430733680725098,0.6341432929039001
1760471343423179500,9.895179443359375,-7.40871524810791,-2.3287391662597656,0.7368414402008057
1760471343433141500,9.9051416015625,-7.742522239685059,-2.331913471221924,0.839274525642395
1760471343443103500,9.915103515625,-7.992156028747559,-2.3087058067321777,0.900759220123291
1760471343453065700,9.925065673828126,-8.258600234985352,-2.239178419113159,0.907440721988678
1760471343463027500,9.93502734375,-8.558965682983398,-2.268209457397461,0.8664384484291077
1760471343472989400,9.944989501953126,-8.925226211547852,-2.2410221099853516,0.8475083112716675
1760471343482951700,9.95495166015625,-9.19865894317627,-2.4070379734039307,0.9279522895812988
1760471343492913400,9.964913330078126,-9.221772193908691,-2.518120527267456,1.1160494089126587
1760471343502875600,9.974875732421875,-9.036760330200195,-2.2126638889312744,1.3809452056884766
1760471343512837600,9.984837646484374,-8.753328323364258,-1.92190420627594,1.5917774438858032
1760471343522799600,9.994799560546875,-8.121777534484863,-1.8584831953048706,1.6359283924102783
1760471343532762600,10.0047626953125,-7.423959732055664,-1.8284173011779785,1.5066511631011963
1760471343542724600,10.014724609375,-6.661101341247559,-1.7018595933914185,1.240755319595337
1760471343552686300,10.024686279296875,-5.9519524574279785,-1.4609955549240112,0.8964093327522278
1760471343562648600,10.034648681640626,-5.358789920806885,-1.2002761363983154,0.5655696392059326
1760471343572610600,10.044610595703125,-4.824691295623779,-0.9773045182228088,0.31791144609451294
1760471343582572500,10.054572509765626,-4.247745990753174,-0.7864168286323547,0.17309565842151642
1760471343592534500,10.064534423828125,-3.5967416763305664,-0.7197561264038086,0.11193292587995529
1760471343602496500,10.07449658203125,-2.8923799991607666,-0.7039459943771362,0.15144439041614532
1760471343612458500,10.08445849609375,-2.1360790729522705,-0.6942726969718933,0.2916991412639618
1760471343622420500,10.09442041015625,-1.3913655281066895,-0.6324884295463562,0.4462625980377197
1760471343632382700,10.1043828125,-0.7036163806915283,-0.5242636799812317,0.5073723196983337
1760471343642344400,10.114344482421876,-0.07602408528327942,-0.36237359046936035,0.44908562302589417
1760471343652306400,10.124306396484375,0.6145270466804504,-0.09752091020345688,0.30521902441978455
1760471343662268700,10.1342685546875,1.3818387985229492,0.19102594256401062,0.1169886589050293
1760471343672230400,10.14423046875,2.186415910720825,0.4324449598789215,-0.08659593015909195
1760471343682192600,10.154192626953124,2.9813008308410645,0.6627386212348938,-0.2687675952911377
1760471343692155600,10.16415576171875,3.6878111362457275,0.8676175475120544,-0.3918379247188568
1760471343702117600,10.17411767578125,4.34092378616333,1.035675287246704,-0.46466949582099915
1760471343712079600,10.18407958984375,4.968197822570801,1.1881024837493896,-0.5128247737884521
1760471343722041600,10.19404150390625,5.587944507598877,1.2910059690475464,-0.5289933681488037
1760471343732003300,10.20400341796875,6.17857027053833,1.348556637763977,-0.5225172638893127
1760471343741965600,10.213965576171875,6.668457508087158,1.4190737009048462,-0.5471674799919128
1760471343751927600,10.223927490234376,7.099454402923584,1.5589309930801392,-0.6270293593406677
1760471343761889500,10.2338896484375,7.398146152496338,1.8825106620788574,-0.7827329039573669
1760471343771851500,10.2438515625,7.524299144744873,2.264061450958252,-0.9475850462913513
1760471343781813500,10.2538134765625,7.425907135009766,2.418306589126587,-1.113340973854065
1760471343791775500,10.263775390625,7.205661296844482,2.4213955402374268,-1.3190734386444092
1760471343801737500,10.273737548828125,7.121066570281982,2.111898899078369,-1.538064956665039
1760471343811699700,10.28369970703125,7.372193336486816,1.6677720546722412,-1.5351120233535767
1760471343821661400,10.293661376953125,7.669005393981934,1.7550424337387085,-1.322882056236267
1760471343831623700,10.303623779296874,7.674196720123291,2.311652421951294,-1.0339760780334473
1760471343841585700,10.313585693359375,7.442220687866211,2.9414288997650146,-0.7273838520050049
1760471343851548700,10.323548583984374,7.055161476135254,3.188660144805908,-0.5201217532157898
1760471343861510400,10.333510498046875,6.825460910797119,2.794877052307129,-0.49261024594306946
1760471343871472600,10.34347265625,6.8817267417907715,2.419369697570801,-0.5870133638381958
1760471343881434600,10.3534345703125,6.753442287445068,2.4040918350219727,-0.6898819804191589
1760471343891396600,10.363396728515625,6.418148517608643,2.3920459747314453,-0.744425892829895
1760471343901358600,10.373358642578125,6.013469219207764,2.178816556930542,-0.6901900768280029
1760471343911320600,10.383320556640625,5.537109375,1.7570096254348755,-0.48503997921943665
1760471343921282600,10.393282470703125,5.03374719619751,1.3552906513214111,-0.16940292716026306
1760471343931244500,10.40324462890625,4.538297176361084,1.0510945320129395,0.1777062863111496
1760471343941206500,10.41320654296875,4.090262413024902,0.7090147733688354,0.48817121982574463
1760471343951168500,10.42316845703125,3.6609678268432617,0.48879972100257874,0.7093425989151001
1760471343961130500,10.433130615234376,3.1601381301879883,0.33708930015563965,0.8325465321540833
1760471343971092500,10.443092529296875,2.5460586547851562,0.14342907071113586,0.8979270458221436
1760471343981054500,10.453054443359376,1.865874171257019,-0.03668477013707161,0.895502507686615
1760471343991016700,10.4630166015625,1.1801426410675049,-0.031138651072978973,0.838097333908081
1760471344000979700,10.472979736328124,0.44023770093917847,0.02448972314596176,0.7257974147796631
1760471344010941400,10.48294140625,-0.3063822090625763,0.023171251639723778,0.5352181792259216
1760471344020903700,10.492903564453124,-1.0076913833618164,-0.08299912512302399,0.3021417558193207
1760471344030865700,10.50286572265625,-1.7018425464630127,-0.2949594557285309,0.08850905299186707
1760471344040827400,10.512827392578124,-2.46519136428833,-0.657663106918335,-0.046322792768478394
1760471344050789600,10.52278955078125,-3.2239902019500732,-1.295912504196167,-0.06440939009189606
1760471344060751600,10.532751708984375,-3.887760877609253,-2.097853660583496,0.04841090366244316
1760471344070713600,10.542713623046875,-4.409173488616943,-2.8860838413238525,0.262174516916275
1760471344080675600,10.552675537109375,-4.831265449523926,-3.4080021381378174,0.5079461932182312
1760471344090637600,10.562637451171875,-5.278648376464844,-3.6101396083831787,0.7018289566040039
1760471344100599600,10.572599609375,-5.700489044189453,-3.679922342300415,0.7547782063484192
1760471344110561500,10.5825615234375,-6.104777812957764,-3.5239808559417725,0.6306052803993225
1760471344120523500,10.5925234375,-6.5864105224609375,-3.1043782234191895,0.3613399565219879
1760471344130485500,10.602485595703126,-7.1123948097229,-2.591831684112549,0.04213178530335426
1760471344140447700,10.61244775390625,-7.658322334289551,-1.961559534072876,-0.16944730281829834
1760471344150409500,10.622409423828126,-8.087581634521484,-1.4859832525253296,-0.21893750131130219
1760471344160371500,10.632371337890625,-8.371139526367188,-1.2966266870498657,-0.09854771941900253
1760471344170333700,10.642333740234376,-8.563069343566895,-1.4155986309051514,0.1985253095626831
1760471344180296700,10.652296630859375,-8.685150146484375,-1.7693852186203003,0.6295792460441589
1760471344190255400,10.66225537109375,-8.698502540588379,-2.1976239681243896,1.0730706453323364
1760471344200217600,10.672217529296875,-8.632684707641602,-2.531280755996704,1.4134413003921509
1760471344210179300,10.682179443359376,-8.581683158874512,-2.5895378589630127,1.6211848258972168
1760471344220141300,10.692141357421875,-8.508480072021484,-2.599472761154175,1.7378976345062256
1760471344230103600,10.702103515625,-8.273813247680664,-2.57185959815979,1.7634921073913574
1760471344240065300,10.712065185546875,-7.887547016143799,-2.195892333984375,1.6907390356063843
1760471344250027500,10.722027587890626,-7.4732561111450195,-1.615703821182251,1.5176273584365845
1760471344259989500,10.731989501953125,-6.946024417877197,-1.0024763345718384,1.2454344034194946
1760471344269951200,10.741951171875,-6.160735130310059,-0.4097250699996948,0.8939858078956604
1760471344279913500,10.75191357421875,-5.342556476593018,0.1956348568201065,0.5142208933830261
1760471344289875500,10.76187548828125,-4.530442237854004,0.7516844868659973,0.15271365642547607
1760471344299837400,10.77183740234375,-3.8136889934539795,1.1930973529815674,-0.10977976024150848
1760471344309799400,10.78179931640625,-3.2219269275665283,1.3787344694137573,-0.2805953025817871
1760471344319761400,10.791761474609375,-2.648960590362549,1.2836612462997437,-0.39966416358947754
1760471344329723400,10.801723388671874,-2.0484607219696045,1.025349736213684,-0.483426958322525
1760471344339685400,10.811685302734375,-1.45816969871521,0.7093802690505981,-0.5258756279945374
1760471344349647600,10.821647705078124,-0.8185123801231384,0.36600908637046814,-0.5043722987174988
1760471344359609300,10.831609375,-0.12680582702159882,0.0916968360543251,-0.4234050512313843
1760471344369572400,10.841572265625,0.558014988899231,-0.03243841603398323,-0.3036150336265564
1760471344379534600,10.85153466796875,1.215805172920227,0.07013802230358124,-0.16958452761173248
1760471344389496300,10.861496337890625,1.8206679821014404,0.3025817275047302,-0.05389295518398285
1760471344399458300,10.871458251953126,2.4216108322143555,0.5110563635826111,0.027186715975403786
1760471344409420500,10.881420654296875,2.9843785762786865,0.7298054099082947,0.07055192440748215
1760471344419382300,10.89138232421875,3.526014804840088,0.9497119188308716,0.06311637908220291
1760471344429344500,10.901344482421875,4.075786113739014,1.2279529571533203,0.00629481952637434
1760471344439306500,10.911306396484376,4.672382354736328,1.527351975440979,-0.10681149363517761
1760471344449268200,10.921268310546875,5.308278560638428,1.8211616277694702,-0.24746423959732056
1760471344459230500,10.93123046875,5.8767781257629395,2.101245641708374,-0.39195457100868225
1760471344469192400,10.9411923828125,6.354207992553711,2.348543405532837,-0.5347274541854858
1760471344479154400,10.951154541015624,6.801868438720703,2.532212257385254,-0.6678173542022705
1760471344489116400,10.961116455078125,7.215378761291504,2.5154340267181396,-0.8145719170570374
1760471344499078400,10.971078369140624,7.607772350311279,2.32621693611145,-0.9925057291984558
1760471344509040400,10.981040283203125,7.938575267791748,2.0354743003845215,-1.2040894031524658
1760471344519002400,10.99100244140625,8.19536304473877,1.8100881576538086,-1.3947230577468872
1760471344528964600,11.000964599609375,8.215301513671875,1.6725599765777588,-1.5607722997665405
1760471344538926300,11.01092626953125,8.038601875305176,1.5661908388137817,-1.7127567529678345
1760471344548889300,11.020889404296875,7.707827091217041,1.5016207695007324,-1.8472775220870972
1760471344558851600,11.0308515625,7.316786289215088,1.5086747407913208,-2.0244204998016357
1760471344568813300,11.040813232421876,6.933290958404541,1.7763081789016724,-2.2500104904174805
1760471344578775300,11.050775390625,6.447869300842285,2.2035093307495117,-2.496737480163574
1760471344588737500,11.060737548828126,5.8897480964660645,2.8024089336395264,-2.817913293838501
1760471344598699300,11.07069921875,5.455408096313477,3.3028175830841064,-3.226166009902954
1760471344608661500,11.08066162109375,5.2676920890808105,3.5243160724639893,-3.6684792041778564
1760471344618623500,11.09062353515625,5.222772121429443,3.592853307723999,-3.9536032676696777
1760471344628585200,11.100585205078126,5.137274742126465,3.603095531463623,-3.9223926067352295
1760471344638547500,11.11054736328125,4.9239583015441895,3.3397974967956543,-3.529163360595703
1760471344648509400,11.120509521484376,4.514013290405273,2.909907579421997,-2.7943525314331055
1760471344658471400,11.130471435546875,4.063525676727295,2.4157137870788574,-1.7534184455871582
1760471344668433400,11.140433349609374,3.407701015472412,1.778236985206604,-0.7061341404914856
1760471344678395400,11.1503955078125,2.7428009510040283,0.8695582747459412,0.18906457722187042
1760471344688357400,11.160357421875,2.0782551765441895,-0.06305769085884094,0.8028378486633301
1760471344698319400,11.1703193359375,1.2819983959197998,-0.6374269723892212,1.1518386602401733
1760471344708281600,11.180281494140624,0.40792185068130493,-1.0015451908111572,1.2799190282821655
1760471344718243300,11.190243408203125,-0.3833986222743988,-1.3402204513549805,1.2883641719818115
1760471344728205600,11.20020556640625,-1.2552043199539185,-1.7108224630355835,1.2082479000091553
1760471344738168600,11.21016845703125,-2.0525107383728027,-2.1658782958984375,1.1503105163574219
1760471344748130600,11.220130615234375,-2.684211015701294,-2.6079349517822266,1.1428110599517822
1760471344758092300,11.23009228515625,-3.200836420059204,-2.742253303527832,1.188558578491211
1760471344768054500,11.240054443359375,-3.6906020641326904,-2.6467833518981934,1.251428484916687
1760471344778016300,11.250016357421876,-4.198167324066162,-2.6126351356506348,1.24246346950531
1760471344787978500,11.259978515625,-4.686048984527588,-2.789097785949707,1.1661657094955444
1760471344797940500,11.2699404296875,-5.113521575927734,-3.063495635986328,1.083650827407837
1760471344807902500,11.27990234375,-5.485546112060547,-3.217827796936035,1.036455512046814
1760471344817864400,11.289864501953126,-5.846956729888916,-3.203092098236084,1.0455529689788818
1760471344827826400,11.299826416015625,-6.210155487060547,-3.208724021911621,1.0737355947494507
1760471344837788400,11.309788330078124,-6.602758884429932,-3.192467212677002,1.0960938930511475
1760471344847750400,11.31975048828125,-7.0652337074279785,-3.1021568775177,1.1139249801635742
1760471344857712400,11.32971240234375,-7.536594867706299,-3.0459706783294678,1.1185938119888306
1760471344867674400,11.33967431640625,-8.002229690551758,-2.838608503341675,1.1447440385818481
1760471344877636400,11.34963623046875,-8.394426345825195,-2.640491247177124,1.2234052419662476
1760471344887598600,11.3595986328125,-8.658492088317871,-2.4383528232574463,1.3625516891479492
1760471344897560300,11.369560302734374,-8.781357765197754,-2.454571485519409,1.562984824180603
1760471344907522600,11.3795224609375,-8.659599304199219,-2.7660131454467773,1.8009742498397827
1760471344917484500,11.389484619140624,-8.34382152557373,-3.0232326984405518,2.0770363807678223
1760471344927446300,11.3994462890625,-7.966128349304199,-3.2511391639709473,2.375007390975952
1760471344937408500,11.409408447265625,-7.439055442810059,-3.4996659755706787,2.669620990753174
1760471344947370500,11.41937060546875,-6.824118614196777,-3.6611435413360596,2.899064302444458
1760471344957333200,11.429333251953125,-6.3940749168396,-3.4537575244903564,3.026243209838867
1760471344967295500,11.43929541015625,-5.994811058044434,-2.8534560203552246,2.9637644290924072
1760471344977257500,11.449257568359375,-5.364606857299805,-2.0268592834472656,2.6948843002319336
1760471344987219500,11.459219482421876,-4.525452613830566,-1.2574877738952637,2.2242987155914307
1760471344997181400,11.469181396484375,-3.470085859298706,-0.5819335579872131,1.587037444114685
1760471345007143400,11.479143310546876,-2.330247640609741,-0.07958996295928955,0.862911581993103
1760471345017105400,11.48910546875,-1.2462472915649414,0.1899339109659195,0.17161384224891663
1760471345027067400,11.4990673828125,-0.3158766031265259,0.29637590050697327,-0.3255001902580261
1760471345037029600,11.509029541015625,0.33109337091445923,0.27193689346313477,-0.6221068501472473
1760471345046991400,11.518991455078124,0.679921567440033,0.28324007987976074,-0.7805970907211304
1760471345056953300,11.528953369140625,0.849687933921814,0.30250537395477295,-0.8585088849067688
1760471345066915600,11.53891552734375,1.0208855867385864,0.32601505517959595,-0.8993822932243347
1760471345076877300,11.548877197265625,1.2772598266601562,0.44266125559806824,-0.9494313597679138
1760471345086839600,11.558839599609374,1.673689842224121,0.6561033129692078,-1.0147392749786377
1760471345096801500,11.568801513671875,2.1768720149993896,0.8950849771499634,-1.0450644493103027
1760471345106763300,11.57876318359375,2.754979133605957,1.1162611246109009,-1.0159059762954712
1760471345116725500,11.5887255859375,3.398961305618286,1.3443018198013306,-0.9370319843292236
1760471345126687500,11.5986875,4.0875115394592285,1.5241116285324097,-0.8573862314224243
1760471345136649500,11.6086494140625,4.8227009773254395,1.693849802017212,-0.8386045098304749
1760471345146611500,11.618611572265625,5.5152459144592285,1.9669691324234009,-0.8621909022331238
1760471345156573400,11.628573486328126,6.114809513092041,2.2903072834014893,-0.9021058678627014
1760471345166535400,11.638535400390625,6.585568904876709,2.582698106765747,-0.9475223422050476
1760471345176498400,11.64849853515625,6.96231746673584,2.7853941917419434,-0.9991157650947571
1760471345186460400,11.65846044921875,7.328364849090576,2.946620464324951,-1.0753668546676636
1760471345196422400,11.66842236328125,7.6414642333984375,3.0520358085632324,-1.1388121843338013
1760471345206384400,11.67838427734375,7.867255210876465,3.1260275840759277,-1.1680115461349487
1760471345216346600,11.6883466796875,8.020296096801758,3.4817051887512207,-1.23598313331604
1760471345226308400,11.698308349609375,8.078195571899414,4.100078582763672,-1.3906680345535278
1760471345236270300,11.708270263671874,8.086921691894531,4.7529706954956055,-1.642529845237732
1760471345246232600,11.718232666015625,7.95947265625,5.119080066680908,-1.9688910245895386
1760471345256194300,11.7281943359375,7.750251293182373,5.088533878326416,-2.327425241470337
1760471345266156500,11.738156494140625,7.548315048217773,4.918612480163574,-2.67273211479187
1760471345276118500,11.748118408203124,7.179344654083252,4.79246711730957,-2.975963830947876
1760471345286080300,11.758080322265625,6.600053310394287,4.553047180175781,-3.1937570571899414
1760471345296042500,11.76804248046875,6.05788516998291,4.043558120727539,-3.2783584594726562
1760471345306004500,11.77800439453125,5.484131813049316,3.4524471759796143,-3.2633066177368164
1760471345315966500,11.787966552734375,5.065500736236572,2.8955698013305664,-3.0651566982269287
1760471345325928400,11.797928466796876,4.71749210357666,2.5021185874938965,-2.677992343902588
1760471345335890400,11.807890380859375,4.340213775634766,2.2203452587127686,-2.133695125579834
1760471345345852400,11.817852294921876,3.9877610206604004,2.00468111038208,-1.5289950370788574
1760471345355814400,11.827814453125,3.613126516342163,1.5323545932769775,-0.9724725484848022
1760471345365776600,11.837776611328126,3.2761714458465576,0.8928783535957336,-0.46425166726112366
1760471345375738400,11.84773828125,2.6619110107421875,0.5100066065788269,-0.11568675190210342
1760471345385700400,11.857700439453126,2.0395290851593018,0.1770082414150238,0.06736931949853897
1760471345395663600,11.86766357421875,1.2169654369354248,-0.0942525565624237,0.05947251245379448
1760471345405625300,11.877625244140624,0.1663428694009781,-0.3250375986099243,0.019021345302462578
1760471345415587300,11.88758740234375,-1.0273487567901611,-0.5261895656585693,-0.016598699614405632
1760471345425549600,11.897549560546874,-2.1634740829467773,-0.8373553156852722,-0.03931106626987457
1760471345435511300,11.90751123046875,-3.1839470863342285,-1.3214954137802124,-0.07296090573072433
1760471345445473500,11.9174736328125,-4.086665630340576,-1.8029999732971191,-0.049996424466371536
1760471345455435500,11.927435546875,-4.90729284286499,-2.184842348098755,0.09898293763399124
1760471345465397200,11.937397216796874,-5.637911796569824,-2.6087682247161865,0.3819834291934967
1760471345475359500,11.947359375,-6.20755672454834,-3.05745005607605,0.7400848269462585
1760471345485321500,11.957321533203125,-6.642434597015381,-3.456052303314209,1.066231369972229
1760471345495283500,11.967283447265626,-6.909465789794922,-3.603414297103882,1.2720823287963867
1760471345505245400,11.977245361328125,-7.077794075012207,-3.451554536819458,1.349421501159668
1760471345515207400,11.98720751953125,-7.217244625091553,-3.0502452850341797,1.375577449798584
1760471345525169400,11.99716943359375,-7.273565769195557,-2.725604295730591,1.358763337135315
1760471345535131400,12.00713134765625,-7.315507411956787,-2.510014295578003,1.2999101877212524
1760471345545093600,12.01709375,-7.504170894622803,-2.353452205657959,1.252403974533081
1760471345555055400,12.027055419921876,-7.897327899932861,-2.3809757232666016,1.2375280857086182
1760471345565017300,12.037017333984375,-8.418869018554688,-2.509275436401367,1.2191177606582642
1760471345574979600,12.0469794921875,-8.977822303771973,-2.7772064208984375,1.2028392553329468
1760471345584941300,12.05694140625,-9.404106140136719,-3.1511619091033936,1.2027407884597778
1760471345594903600,12.066903564453124,-9.733960151672363,-3.4142391681671143,1.3043125867843628
1760471345604865500,12.076865478515625,-9.94648551940918,-3.54115629196167,1.5118489265441895
1760471345614827500,12.08682763671875,-9.8253173828125,-3.5436277389526367,1.6811178922653198
1760471345624789500,12.09678955078125,-9.243559837341309,-3.193667411804199,1.7127972841262817
1760471345634751500,12.10675146484375,-8.318695068359375,-2.5201776027679443,1.5842851400375366
1760471345644714200,12.11671435546875,-7.06282377243042,-1.612468957901001,1.3640568256378174
1760471345654676500,12.126676513671875,-5.767139434814453,-0.6005916595458984,1.1264902353286743
1760471345664638500,12.136638427734376,-4.778130531311035,0.3816682994365692,0.905238687992096
1760471345674600400,12.146600341796875,-4.1642327308654785,0.999864399433136,0.6994035243988037
1760471345684562400,12.1565625,-3.611257553100586,1.1458220481872559,0.4790997803211212
1760471345694524400,12.1665244140625,-3.0798611640930176,1.0866727828979492,0.19291596114635468
1760471345704486400,12.176486328125,-2.5408945083618164,0.9091219902038574,-0.08550883084535599
1760471345714448400,12.186448486328125,-1.9291483163833618,0.6261729001998901,-0.23803658783435822
1760471345724410600,12.19641064453125,-1.2024645805358887,0.3462485671043396,-0.3264438807964325
1760471345734372400,12.206372314453125,-0.41651198267936707,0.17541611194610596,-0.3748878538608551
1760471345744334300,12.216334228515626,0.40901848673820496,0.05896864831447601,-0.40423718094825745
1760471345754296600,12.226296630859375,1.2583564519882202,-0.04239179193973541,-0.42702051997184753
1760471345764258300,12.23625830078125,2.0431430339813232,-0.03484157472848892,-0.46848782896995544
1760471345774220500,12.246220458984375,2.620846748352051,0.0874028429389,-0.5339717864990234
1760471345784182500,12.2561826171875,3.0753438472747803,0.26216548681259155,-0.6174395680427551
1760471345794144500,12.26614453125,3.4906134605407715,0.4444684684276581,-0.740800142288208
1760471345804106500,12.2761064453125,3.8888051509857178,0.7442457675933838,-0.884451150894165
1760471345814068500,12.286068359375,4.325589179992676,1.148798942565918,-1.0076228380203247
1760471345824030500,12.296030517578124,4.828121185302734,1.5502229928970337,-1.077551007270813
1760471345833992400,12.305992431640625,5.28711462020874,1.9035900831222534,-1.0761443376541138
1760471345843954400,12.315954345703124,5.767204761505127,2.0820701122283936,-1.0162616968154907
1760471345853916400,12.32591650390625,6.051184177398682,2.1157913208007812,-0.9368118047714233
1760471345863878400,12.33587841796875,6.180984973907471,2.073007106781006,-0.9143944978713989
1760471345873840400,12.34584033203125,6.388585090637207,1.928842544555664,-1.0329257249832153
1760471345883802400,12.35580224609375,6.777063846588135,1.7848654985427856,-1.2456105947494507
1760471345893764600,12.3657646484375,7.259236812591553,1.8636199235916138,-1.490050196647644
1760471345903726300,12.375726318359375,7.595946788787842,2.194632053375244,-1.686006784439087
1760471345913689300,12.385689453125,7.703864097595215,2.5417189598083496,-1.7989349365234375
1760471345923651600,12.395651611328125,7.623330593109131,2.7478508949279785,-1.8418707847595215
1760471345933613600,12.405613525390624,7.4763336181640625,2.6489920616149902,-1.9034066200256348
1760471345943575300,12.4155751953125,7.471825122833252,2.5403668880462646,-2.0531492233276367
1760471345953537500,12.42553759765625,7.4602742195129395,2.5833473205566406,-2.1955506801605225
1760471345963499500,12.43549951171875,7.302127361297607,2.7261500358581543,-2.233963966369629
1760471345973461500,12.44546142578125,6.870920181274414,2.8595895767211914,-2.109697103500366
1760471345983423500,12.455423583984375,6.2338175773620605,2.7037627696990967,-1.8816368579864502
1760471345993385500,12.465385498046874,5.48553466796875,2.14454984664917,-1.497979998588562
1760471346003347500,12.475347412109375,4.928231239318848,1.4281686544418335,-1.0194655656814575
1760471346013309400,12.485309326171874,4.600989818572998,1.1878929138183594,-0.4952239394187927
1760471346023271700,12.495271728515625,4.379631519317627,1.336451530456543,-0.025193285197019577
1760471346033233400,12.5052333984375,4.124081611633301,1.4876703023910522,0.30309802293777466
1760471346043195400,12.5151953125,3.7110891342163086,1.357073187828064,0.4408527910709381
